vp, block, trial, practice, featureBias, soundBias, direction, startFeature, overlap, response, RT
1, 1, 1, 1, 2, 1, 2, 2, 1, 1, 26008.000
1, 1, 2, 1, 3, 3, 2, 2, 1, 2, 11328.000
1, 1, 3, 1, 1, 3, 1, 2, 2, 2, 3929.000
1, 1, 4, 1, 1, 3, 2, 2, 1, 2, 1737.000
1, 1, 5, 1, 1, 2, 1, 2, 2, 1, 577.000
1, 1, 6, 1, 2, 2, 2, 2, 2, 2, 665.000
1, 1, 7, 1, 2, 2, 1, 2, 1, 2, 487.000
1, 1, 8, 1, 3, 3, 1, 2, 2, 2, 809.000
1, 1, 9, 1, 2, 1, 2, 1, 2, 1, 283.000
1, 1, 10, 1, 2, 2, 1, 1, 2, 2, 509.000
1, 1, 11, 1, 1, 2, 2, 2, 2, 2, 67.000
1, 1, 12, 1, 1, 3, 2, 1, 2, 2, 401.000
1, 2, 1, 0, 1, 3, 2, 1, 1, 2, 556.000
1, 2, 2, 0, 1, 1, 2, 2, 2, 1, 0.000
1, 2, 3, 0, 1, 2, 1, 2, 1, 2, 104.000
1, 2, 4, 0, 1, 3, 2, 2, 2, 1, 1452.000
1, 2, 5, 0, 2, 2, 1, 1, 1, 2, 418.000
1, 2, 6, 0, 2, 3, 2, 2, 2, 2, 120.000
1, 2, 7, 0, 2, 2, 2, 1, 2, 2, 370.000
1, 2, 8, 0, 3, 3, 2, 1, 1, 2, 122.000
1, 2, 9, 0, 3, 2, 1, 2, 1, 2, 346.000
1, 2, 10, 0, 2, 1, 2, 2, 2, 1, 214.000
1, 2, 11, 0, 3, 1, 1, 2, 2, 2, 228.000
1, 2, 12, 0, 3, 1, 2, 2, 1, 2, 56.000
1, 2, 13, 0, 1, 1, 1, 1, 2, 1, 14.000
1, 2, 14, 0, 3, 2, 1, 1, 2, 2, 300.000
1, 2, 15, 0, 2, 3, 2, 1, 2, 2, 42.000
1, 2, 16, 0, 1, 3, 1, 2, 1, 2, 28.000
1, 2, 17, 0, 3, 3, 2, 2, 2, 2, 8.000
1, 2, 18, 0, 3, 2, 2, 2, 1, 2, 64.000
1, 2, 19, 0, 1, 1, 1, 2, 1, 1, 0.000
1, 2, 20, 0, 2, 3, 1, 2, 2, 2, 0.000
1, 2, 21, 0, 3, 3, 1, 1, 2, 2, 16.000
1, 2, 22, 0, 2, 1, 2, 1, 2, 1, 165.000
1, 2, 23, 0, 1, 1, 2, 1, 1, 1, 0.000
1, 2, 24, 0, 3, 1, 2, 1, 1, 2, 0.000
1, 2, 25, 0, 2, 1, 1, 2, 2, 1, 6393.000
1, 2, 26, 0, 1, 2, 2, 1, 1, 2, 995.000
1, 2, 27, 0, 1, 2, 2, 2, 1, 2, 61.000
1, 2, 28, 0, 2, 2, 2, 2, 1, 2, 0.000
1, 2, 29, 0, 1, 2, 1, 1, 1, 1, 53.000
1, 2, 30, 0, 1, 3, 1, 1, 2, 2, 523.000
1, 2, 31, 0, 2, 1, 1, 1, 1, 1, 35.000
1, 2, 32, 0, 2, 3, 1, 1, 2, 2, 125.000
1, 2, 33, 0, 3, 3, 1, 2, 1, 2, 53.000
1, 2, 34, 0, 3, 1, 1, 1, 2, 1, 91.000
1, 2, 35, 0, 2, 2, 1, 2, 1, 1, 291.000
1, 2, 36, 0, 3, 2, 2, 1, 2, 2, 35.000
1, 3, 1, 0, 2, 2, 2, 1, 2, 2, 160.000
1, 3, 2, 0, 2, 3, 1, 1, 2, 2, 82.000
1, 3, 3, 0, 1, 1, 1, 2, 1, 1, 0.000
1, 3, 4, 0, 3, 1, 1, 1, 2, 2, 0.000
1, 3, 5, 0, 1, 3, 2, 2, 2, 2, 48.000
1, 3, 6, 0, 2, 3, 2, 1, 2, 2, 0.000
1, 3, 7, 0, 3, 3, 1, 2, 2, 2, 249.000
1, 3, 8, 0, 3, 2, 2, 2, 1, 2, 2.000
1, 3, 9, 0, 1, 3, 2, 1, 1, 2, 0.000
1, 3, 10, 0, 1, 2, 1, 1, 1, 2, 2374.000
1, 3, 11, 0, 3, 1, 2, 2, 2, 1, 44.000
1, 3, 12, 0, 2, 3, 2, 2, 1, 2, 0.000
1, 3, 13, 0, 1, 3, 1, 1, 1, 2, 85.000
1, 3, 14, 0, 3, 3, 2, 2, 1, 2, 118.000
1, 3, 15, 0, 1, 2, 2, 1, 1, 2, 135.000
1, 3, 16, 0, 3, 3, 1, 1, 2, 2, 22.000
1, 3, 17, 0, 2, 1, 1, 2, 2, 1, 0.000
1, 3, 18, 0, 3, 1, 2, 1, 1, 2, 3581.000
1, 3, 19, 0, 3, 2, 1, 2, 2, 2, 139.000
1, 3, 20, 0, 2, 1, 1, 1, 1, 1, 0.000
1, 3, 21, 0, 2, 2, 1, 1, 2, 2, 179.000
1, 3, 22, 0, 1, 1, 2, 1, 2, 1, 0.000
1, 3, 23, 0, 3, 3, 2, 1, 1, 2, 0.000
1, 3, 24, 0, 3, 2, 1, 1, 2, 2, 0.000
1, 3, 25, 0, 2, 3, 1, 2, 1, 2, 1999.000
1, 3, 26, 0, 2, 2, 2, 2, 1, 2, 121.000
1, 3, 27, 0, 2, 1, 2, 1, 2, 1, 0.000
1, 3, 28, 0, 3, 1, 1, 2, 1, 2, 0.000
1, 3, 29, 0, 1, 2, 1, 2, 1, 2, 359.000
1, 3, 30, 0, 2, 1, 2, 2, 2, 1, 0.000
1, 3, 31, 0, 1, 1, 1, 1, 2, 1, 3.000
1, 3, 32, 0, 1, 1, 2, 2, 1, 1, 2907.000
1, 3, 33, 0, 3, 2, 2, 1, 1, 2, 0.000
1, 3, 34, 0, 2, 2, 1, 2, 1, 2, 0.000
1, 3, 35, 0, 1, 2, 2, 2, 1, 2, 0.000
1, 3, 36, 0, 1, 3, 1, 2, 1, 2, 0.000
1, 4, 1, 0, 1, 1, 2, 2, 2, 1, 0.000
1, 4, 2, 0, 3, 2, 1, 1, 2, 2, 70.000
1, 4, 3, 0, 2, 1, 1, 2, 2, 1, 0.000
1, 4, 4, 0, 3, 3, 2, 1, 1, 2, 0.000
1, 4, 5, 0, 3, 1, 2, 1, 2, 2, 0.000
1, 4, 6, 0, 3, 2, 1, 2, 2, 2, 8.000
1, 4, 7, 0, 2, 3, 2, 1, 2, 2, 0.000
1, 4, 8, 0, 2, 2, 2, 1, 2, 2, 0.000
1, 4, 9, 0, 1, 1, 1, 2, 1, 1, 0.000
1, 4, 10, 0, 2, 1, 2, 1, 1, 1, 0.000
1, 4, 11, 0, 1, 1, 1, 1, 1, 1, 4352.000
1, 4, 12, 0, 3, 1, 2, 2, 2, 2, 0.000
1, 4, 13, 0, 1, 2, 1, 2, 1, 2, 93.000
1, 4, 14, 0, 1, 2, 2, 1, 2, 2, 0.000
1, 4, 15, 0, 1, 3, 2, 1, 1, 2, 0.000
1, 4, 16, 0, 1, 3, 1, 2, 1, 1, 199.000
1, 4, 17, 0, 2, 1, 1, 1, 1, 1, 0.000
1, 4, 18, 0, 3, 2, 2, 1, 1, 2, 35.000
1, 4, 19, 0, 2, 2, 1, 2, 1, 1, 2885.000
1, 4, 20, 0, 2, 2, 1, 1, 1, 2, 125.000
1, 4, 21, 0, 3, 3, 1, 1, 1, 2, 0.000
1, 4, 22, 0, 1, 2, 2, 2, 2, 1, 23.000
1, 4, 23, 0, 1, 1, 2, 1, 1, 1, 0.000
1, 4, 24, 0, 3, 1, 1, 1, 2, 1, 0.000
1, 4, 25, 0, 3, 2, 2, 2, 1, 2, 0.000
1, 4, 26, 0, 2, 3, 1, 1, 2, 2, 0.000
1, 4, 27, 0, 1, 3, 2, 2, 2, 1, 0.000
1, 4, 28, 0, 2, 3, 2, 2, 1, 2, 245.000
1, 4, 29, 0, 3, 3, 1, 2, 2, 2, 0.000
1, 4, 30, 0, 2, 2, 2, 2, 2, 2, 0.000
1, 4, 31, 0, 1, 2, 1, 1, 2, 1, 1785.000
1, 4, 32, 0, 3, 3, 2, 2, 1, 2, 0.000
1, 4, 33, 0, 2, 1, 2, 2, 1, 1, 0.000
1, 4, 34, 0, 2, 3, 1, 2, 2, 2, 0.000
1, 4, 35, 0, 3, 1, 1, 2, 1, 2, 0.000
1, 4, 36, 0, 1, 3, 1, 1, 1, 2, 413.000
1, 5, 1, 0, 2, 1, 1, 2, 1, 1, 0.000
1, 5, 2, 0, 1, 1, 2, 1, 2, 1, 0.000
1, 5, 3, 0, 3, 2, 2, 1, 1, 2, 0.000
1, 5, 4, 0, 2, 1, 1, 1, 1, 1, 0.000
1, 5, 5, 0, 3, 2, 2, 2, 1, 2, 0.000
1, 5, 6, 0, 2, 2, 2, 1, 2, 2, 0.000
1, 5, 7, 0, 1, 2, 2, 2, 2, 2, 0.000
1, 5, 8, 0, 1, 2, 1, 1, 2, 1, 6.000
1, 5, 9, 0, 3, 1, 2, 2, 2, 2, 0.000
1, 5, 10, 0, 2, 3, 1, 2, 2, 1, 0.000
1, 5, 11, 0, 1, 3, 1, 1, 1, 1, 0.000
1, 5, 12, 0, 3, 1, 1, 2, 1, 2, 0.000
1, 5, 13, 0, 2, 1, 2, 1, 2, 1, 3678.000
1, 5, 14, 0, 3, 3, 1, 1, 1, 2, 256.000
1, 5, 15, 0, 2, 3, 1, 1, 2, 2, 0.000
1, 5, 16, 0, 2, 3, 2, 2, 1, 2, 2480.000
1, 5, 17, 0, 2, 2, 2, 2, 1, 2, 0.000
1, 5, 18, 0, 1, 1, 2, 2, 2, 1, 0.000
1, 5, 19, 0, 2, 2, 1, 2, 2, 2, 0.000
1, 5, 20, 0, 1, 3, 1, 2, 1, 2, 15.000
1, 5, 21, 0, 1, 1, 1, 2, 1, 1, 13.000
1, 5, 22, 0, 3, 2, 1, 2, 2, 2, 0.000
1, 5, 23, 0, 1, 2, 2, 1, 1, 2, 189.000
1, 5, 24, 0, 2, 3, 2, 1, 2, 2, 73.000
1, 5, 25, 0, 2, 2, 1, 1, 1, 2, 0.000
1, 5, 26, 0, 3, 3, 2, 1, 1, 2, 0.000
1, 5, 27, 0, 3, 1, 2, 1, 1, 2, 63.000
1, 5, 28, 0, 2, 1, 2, 2, 2, 1, 0.000
1, 5, 29, 0, 3, 2, 1, 1, 2, 2, 0.000
1, 5, 30, 0, 1, 2, 1, 2, 1, 2, 0.000
1, 5, 31, 0, 3, 3, 1, 2, 1, 2, 0.000
1, 5, 32, 0, 3, 1, 1, 1, 1, 2, 0.000
1, 5, 33, 0, 1, 1, 1, 1, 2, 1, 0.000
1, 5, 34, 0, 1, 3, 2, 2, 1, 1, 0.000
1, 5, 35, 0, 3, 3, 2, 2, 2, 2, 0.000
1, 5, 36, 0, 1, 3, 2, 1, 1, 2, 0.000
1, 6, 1, 0, 3, 1, 2, 1, 2, 2, 1700.000
1, 6, 2, 0, 2, 3, 1, 2, 1, 1, 35.000
1, 6, 3, 0, 2, 1, 2, 2, 2, 1, 0.000
1, 6, 4, 0, 2, 2, 1, 2, 1, 1, 0.000
1, 6, 5, 0, 3, 3, 2, 1, 2, 2, 1960.000
1, 6, 6, 0, 1, 2, 1, 1, 1, 1, 0.000
1, 6, 7, 0, 1, 3, 2, 1, 1, 2, 0.000
1, 6, 8, 0, 1, 1, 1, 2, 2, 2, 22.000
1, 6, 9, 0, 2, 3, 1, 1, 1, 2, 0.000
1, 6, 10, 0, 1, 3, 2, 2, 1, 1, 0.000
1, 6, 11, 0, 1, 3, 1, 2, 1, 2, 0.000
1, 6, 12, 0, 3, 2, 2, 1, 2, 2, 18.000
1, 6, 13, 0, 2, 2, 1, 1, 1, 2, 0.000
1, 6, 14, 0, 3, 1, 1, 1, 2, 2, 0.000
1, 6, 15, 0, 3, 1, 2, 2, 2, 2, 1652.000
1, 6, 16, 0, 3, 2, 1, 1, 2, 2, 44.000
1, 6, 17, 0, 1, 1, 1, 1, 2, 1, 0.000
1, 6, 18, 0, 1, 3, 1, 1, 1, 1, 0.000
1, 6, 19, 0, 1, 2, 2, 1, 2, 1, 0.000
1, 6, 20, 0, 3, 2, 2, 2, 2, 2, 0.000
1, 6, 21, 0, 2, 1, 2, 1, 2, 2, 0.000
1, 6, 22, 0, 2, 3, 2, 1, 2, 2, 0.000
1, 6, 23, 0, 3, 3, 1, 1, 2, 2, 2895.000
1, 6, 24, 0, 2, 1, 1, 1, 2, 1, 0.000
1, 6, 25, 0, 2, 2, 2, 1, 1, 2, 0.000
1, 6, 26, 0, 3, 3, 2, 2, 1, 2, 0.000
1, 6, 27, 0, 2, 1, 1, 2, 2, 2, 0.000
1, 6, 28, 0, 2, 3, 2, 2, 2, 2, 0.000
1, 6, 29, 0, 1, 1, 2, 2, 1, 1, 0.000
1, 6, 30, 0, 2, 2, 2, 2, 1, 2, 0.000
1, 6, 31, 0, 3, 2, 1, 2, 1, 2, 1659.000
1, 6, 32, 0, 3, 1, 1, 2, 2, 2, 0.000
1, 6, 33, 0, 1, 2, 2, 2, 1, 2, 1099.000
1, 6, 34, 0, 1, 2, 1, 2, 1, 1, 0.000
1, 6, 35, 0, 1, 1, 2, 1, 2, 1, 0.000
1, 6, 36, 0, 3, 3, 1, 2, 1, 2, 0.000
1, 7, 1, 0, 3, 3, 1, 2, 1, 2, 0.000
1, 7, 2, 0, 3, 3, 2, 2, 2, 2, 0.000
1, 7, 3, 0, 2, 3, 2, 2, 1, 2, 1464.000
1, 7, 4, 0, 3, 2, 1, 1, 2, 2, 365.000
1, 7, 5, 0, 2, 3, 2, 1, 1, 2, 68.000
1, 7, 6, 0, 1, 1, 2, 1, 2, 1, 160.000
1, 7, 7, 0, 3, 3, 1, 1, 2, 2, 0.000
1, 7, 8, 0, 1, 2, 1, 1, 2, 1, 0.000
1, 7, 9, 0, 3, 2, 2, 1, 1, 2, 6.000
1, 7, 10, 0, 3, 1, 1, 2, 1, 2, 0.000
1, 7, 11, 0, 2, 1, 1, 2, 2, 2, 48.000
1, 7, 12, 0, 3, 1, 2, 2, 1, 2, 24.000
1, 7, 13, 0, 2, 2, 2, 2, 2, 2, 28.000
1, 7, 14, 0, 2, 1, 1, 1, 1, 1, 0.000
1, 7, 15, 0, 2, 3, 1, 1, 2, 2, 98.000
1, 7, 16, 0, 2, 2, 1, 2, 1, 2, 104.000
1, 7, 17, 0, 1, 3, 1, 1, 1, 1, 4.000
1, 7, 18, 0, 2, 1, 2, 1, 2, 2, 0.000
1, 7, 19, 0, 3, 2, 2, 2, 2, 2, 70.000
1, 7, 20, 0, 1, 1, 1, 1, 2, 1, 0.000
1, 7, 21, 0, 1, 3, 2, 2, 2, 1, 0.000
1, 7, 22, 0, 2, 2, 1, 1, 2, 2, 0.000
1, 7, 23, 0, 3, 1, 1, 1, 1, 2, 216.000
1, 7, 24, 0, 2, 3, 1, 2, 1, 2, 0.000
1, 7, 25, 0, 3, 3, 2, 1, 1, 2, 0.000
1, 7, 26, 0, 1, 1, 1, 2, 2, 1, 1465.000
1, 7, 27, 0, 1, 2, 1, 2, 1, 1, 213.000
1, 7, 28, 0, 3, 2, 1, 2, 2, 2, 43.000
1, 7, 29, 0, 1, 3, 2, 1, 1, 2, 0.000
1, 7, 30, 0, 2, 2, 2, 1, 2, 2, 0.000
1, 7, 31, 0, 3, 1, 2, 1, 1, 2, 0.000
1, 7, 32, 0, 1, 2, 2, 2, 2, 1, 0.000
1, 7, 33, 0, 1, 1, 2, 2, 1, 1, 0.000
1, 7, 34, 0, 1, 3, 1, 2, 2, 2, 29.000
1, 7, 35, 0, 2, 1, 2, 2, 1, 2, 0.000
1, 7, 36, 0, 1, 2, 2, 1, 1, 2, 75.000
1, 8, 1, 0, 3, 1, 2, 2, 1, 2, 108.000
1, 8, 2, 0, 3, 2, 2, 1, 2, 2, 1585.000
1, 8, 3, 0, 3, 3, 2, 2, 2, 2, 0.000
1, 8, 4, 0, 2, 2, 1, 1, 1, 2, 14.000
1, 8, 5, 0, 3, 2, 1, 2, 1, 2, 0.000
1, 8, 6, 0, 1, 1, 2, 2, 1, 1, 0.000
1, 8, 7, 0, 1, 3, 1, 2, 2, 1, 0.000
1, 8, 8, 0, 1, 2, 2, 1, 2, 1, 0.000
1, 8, 9, 0, 3, 3, 2, 1, 2, 2, 12.000
1, 8, 10, 0, 1, 3, 2, 2, 2, 2, 68.000
1, 8, 11, 0, 3, 3, 1, 2, 1, 2, 0.000
1, 8, 12, 0, 1, 1, 1, 2, 2, 1, 0.000
1, 8, 13, 0, 2, 3, 2, 1, 2, 2, 28.000
1, 8, 14, 0, 3, 2, 2, 2, 2, 2, 176.000
1, 8, 15, 0, 2, 2, 2, 2, 2, 2, 190.000
1, 8, 16, 0, 2, 1, 1, 1, 1, 1, 0.000
1, 8, 17, 0, 1, 2, 1, 1, 1, 1, 0.000
1, 8, 18, 0, 2, 3, 2, 2, 1, 1, 1462.000
1, 8, 19, 0, 2, 3, 1, 2, 2, 2, 0.000
1, 8, 20, 0, 2, 1, 2, 2, 2, 1, 1646.000
1, 8, 21, 0, 2, 2, 1, 2, 2, 2, 0.000
1, 8, 22, 0, 3, 1, 2, 1, 1, 2, 0.000
1, 8, 23, 0, 1, 3, 1, 1, 1, 1, 0.000
1, 8, 24, 0, 2, 1, 2, 1, 1, 1, 0.000
1, 8, 25, 0, 3, 3, 1, 1, 2, 2, 0.000
1, 8, 26, 0, 3, 1, 1, 2, 1, 2, 1007.000
1, 8, 27, 0, 1, 1, 2, 1, 1, 1, 0.000
1, 8, 28, 0, 3, 1, 1, 1, 2, 2, 121.000
1, 8, 29, 0, 1, 3, 2, 1, 2, 1, 0.000
1, 8, 30, 0, 1, 2, 2, 2, 1, 1, 0.000
1, 8, 31, 0, 2, 1, 1, 2, 1, 2, 0.000
1, 8, 32, 0, 2, 2, 2, 1, 1, 2, 0.000
1, 8, 33, 0, 2, 3, 1, 1, 2, 2, 0.000
1, 8, 34, 0, 1, 1, 1, 1, 1, 1, 0.000
1, 8, 35, 0, 1, 2, 1, 2, 2, 1, 0.000
1, 8, 36, 0, 3, 2, 1, 1, 2, 2, 41.000
1, 9, 1, 0, 1, 2, 1, 1, 1, 2, 1253.000
1, 9, 2, 0, 3, 2, 1, 2, 2, 2, 11.000
1, 9, 3, 0, 2, 2, 2, 2, 1, 2, 0.000
1, 9, 4, 0, 1, 3, 2, 2, 1, 1, 0.000
1, 9, 5, 0, 2, 3, 1, 2, 1, 2, 0.000
1, 9, 6, 0, 3, 2, 2, 1, 2, 2, 0.000
1, 9, 7, 0, 2, 1, 2, 2, 2, 1, 0.000
1, 9, 8, 0, 1, 3, 2, 1, 1, 1, 2100.000
1, 9, 9, 0, 3, 1, 2, 2, 2, 2, 0.000
1, 9, 10, 0, 2, 2, 1, 1, 1, 2, 0.000
1, 9, 11, 0, 2, 1, 1, 2, 1, 2, 1238.000
1, 9, 12, 0, 2, 3, 2, 2, 1, 2, 0.000
1, 9, 13, 0, 1, 2, 2, 2, 2, 1, 0.000
1, 9, 14, 0, 3, 3, 2, 1, 1, 2, 0.000
1, 9, 15, 0, 2, 2, 1, 2, 1, 2, 0.000
1, 9, 16, 0, 2, 3, 1, 1, 1, 2, 16.000
1, 9, 17, 0, 3, 1, 1, 2, 1, 2, 254.000
1, 9, 18, 0, 3, 2, 1, 1, 2, 2, 20.000
1, 9, 19, 0, 3, 1, 2, 1, 1, 2, 0.000
1, 9, 20, 0, 3, 2, 2, 2, 1, 2, 0.000
1, 9, 21, 0, 1, 2, 2, 1, 2, 1, 0.000
1, 9, 22, 0, 2, 3, 2, 1, 1, 2, 0.000
1, 9, 23, 0, 3, 3, 1, 2, 2, 2, 0.000
1, 9, 24, 0, 2, 2, 2, 1, 1, 2, 20.000
1, 9, 25, 0, 3, 3, 2, 2, 1, 2, 0.000
1, 9, 26, 0, 2, 1, 1, 1, 1, 1, 0.000
1, 9, 27, 0, 1, 3, 1, 2, 1, 1, 0.000
1, 9, 28, 0, 3, 3, 1, 1, 1, 2, 0.000
1, 9, 29, 0, 1, 3, 1, 1, 1, 1, 0.000
1, 9, 30, 0, 2, 1, 2, 1, 2, 2, 0.000
1, 9, 31, 0, 1, 1, 2, 2, 2, 1, 2317.000
1, 9, 32, 0, 1, 1, 2, 1, 1, 1, 0.000
1, 9, 33, 0, 3, 1, 1, 1, 2, 2, 0.000
1, 9, 34, 0, 1, 1, 1, 1, 2, 1, 0.000
1, 9, 35, 0, 1, 2, 1, 2, 1, 1, 0.000
1, 9, 36, 0, 1, 1, 1, 2, 2, 1, 0.000
1, 10, 1, 0, 1, 3, 1, 2, 2, 1, 0.000
1, 10, 2, 0, 2, 3, 2, 1, 2, 1, 0.000
1, 10, 3, 0, 3, 3, 2, 2, 2, 2, 0.000
1, 10, 4, 0, 1, 2, 2, 2, 1, 1, 0.000
1, 10, 5, 0, 2, 2, 1, 1, 1, 1, 0.000
1, 10, 6, 0, 2, 3, 1, 2, 1, 1, 0.000
1, 10, 7, 0, 2, 1, 1, 1, 1, 1, 1213.000
1, 10, 8, 0, 3, 3, 1, 2, 1, 2, 0.000
1, 10, 9, 0, 1, 1, 2, 1, 1, 1, 0.000
1, 10, 10, 0, 2, 2, 1, 2, 1, 1, 0.000
1, 10, 11, 0, 2, 1, 1, 2, 2, 1, 0.000
1, 10, 12, 0, 1, 3, 2, 1, 2, 1, 0.000
1, 10, 13, 0, 3, 3, 2, 1, 1, 2, 0.000
1, 10, 14, 0, 3, 1, 2, 1, 1, 2, 0.000
1, 10, 15, 0, 3, 2, 2, 2, 2, 2, 1104.000
1, 10, 16, 0, 1, 1, 1, 1, 1, 1, 92.000
1, 10, 17, 0, 1, 1, 2, 2, 2, 1, 0.000
1, 10, 18, 0, 1, 1, 1, 2, 1, 1, 0.000
1, 10, 19, 0, 2, 3, 1, 1, 2, 2, 0.000
1, 10, 20, 0, 3, 1, 2, 2, 1, 2, 0.000
1, 10, 21, 0, 2, 1, 2, 2, 1, 1, 1820.000
1, 10, 22, 0, 1, 2, 2, 1, 2, 1, 0.000
1, 10, 23, 0, 3, 1, 1, 1, 1, 2, 0.000
1, 10, 24, 0, 3, 3, 1, 1, 1, 2, 558.000
1, 10, 25, 0, 3, 1, 1, 2, 1, 2, 0.000
1, 10, 26, 0, 3, 2, 1, 1, 1, 2, 242.000
1, 10, 27, 0, 1, 3, 2, 2, 2, 1, 0.000
1, 10, 28, 0, 1, 3, 1, 1, 2, 1, 1357.000
1, 10, 29, 0, 1, 2, 1, 1, 1, 1, 191.000
1, 10, 30, 0, 2, 1, 2, 1, 2, 1, 0.000
1, 10, 31, 0, 1, 2, 1, 2, 2, 1, 0.000
1, 10, 32, 0, 3, 2, 1, 2, 1, 2, 15.000
1, 10, 33, 0, 3, 2, 2, 1, 1, 2, 197.000
1, 10, 34, 0, 2, 3, 2, 2, 1, 1, 1759.000
1, 10, 35, 0, 2, 2, 2, 2, 2, 1, 89.000
1, 10, 36, 0, 2, 2, 2, 1, 1, 1, 465.000
1, 11, 1, 0, 1, 2, 1, 2, 2, 1, 99.000
1, 11, 2, 0, 1, 3, 1, 1, 2, 1, 9.000
1, 11, 3, 0, 3, 1, 1, 2, 1, 2, 0.000
1, 11, 4, 0, 1, 3, 2, 1, 1, 2, 171.000
1, 11, 5, 0, 3, 2, 2, 2, 1, 2, 99.000
1, 11, 6, 0, 2, 2, 2, 2, 1, 1, 0.000
1, 11, 7, 0, 3, 3, 2, 2, 1, 2, 0.000
1, 11, 8, 0, 3, 3, 1, 1, 2, 2, 0.000
1, 11, 9, 0, 3, 2, 1, 2, 2, 2, 63.000
1, 11, 10, 0, 3, 2, 2, 1, 2, 2, 35.000
1, 11, 11, 0, 3, 3, 1, 2, 2, 2, 924.000
1, 11, 12, 0, 1, 1, 1, 2, 1, 1, 0.000
1, 11, 13, 0, 3, 1, 2, 1, 2, 2, 6.000
1, 11, 14, 0, 2, 1, 1, 1, 1, 1, 54.000
1, 11, 15, 0, 1, 1, 2, 1, 2, 1, 0.000
1, 11, 16, 0, 2, 3, 1, 2, 2, 2, 0.000
1, 11, 17, 0, 1, 2, 2, 2, 1, 1, 208.000
1, 11, 18, 0, 1, 3, 1, 2, 1, 1, 0.000
1, 11, 19, 0, 2, 3, 2, 2, 2, 1, 0.000
1, 11, 20, 0, 1, 2, 1, 1, 2, 1, 0.000
1, 11, 21, 0, 1, 1, 1, 1, 2, 1, 0.000
1, 11, 22, 0, 3, 3, 2, 1, 1, 2, 0.000
1, 11, 23, 0, 2, 1, 2, 1, 2, 1, 1450.000
1, 11, 24, 0, 2, 3, 1, 1, 1, 2, 154.000
1, 11, 25, 0, 2, 2, 1, 1, 1, 2, 28.000
1, 11, 26, 0, 3, 1, 2, 2, 2, 1, 176.000
1, 11, 27, 0, 2, 2, 1, 2, 1, 2, 94.000
1, 11, 28, 0, 2, 3, 2, 1, 2, 2, 140.000
1, 11, 29, 0, 2, 2, 2, 1, 1, 2, 0.000
1, 11, 30, 0, 1, 1, 2, 2, 2, 1, 0.000
1, 11, 31, 0, 3, 1, 1, 1, 1, 2, 0.000
1, 11, 32, 0, 2, 1, 1, 2, 2, 1, 0.000
1, 11, 33, 0, 1, 3, 2, 2, 1, 2, 0.000
1, 11, 34, 0, 3, 2, 1, 1, 2, 2, 11.000
1, 11, 35, 0, 1, 2, 2, 1, 1, 1, 1595.000
1, 11, 36, 0, 2, 1, 2, 2, 1, 1, 0.000
1, 12, 1, 0, 3, 1, 2, 1, 2, 1, 0.000
1, 12, 2, 0, 3, 3, 1, 1, 2, 2, 0.000
1, 12, 3, 0, 1, 2, 1, 2, 2, 1, 1225.000
1, 12, 4, 0, 1, 2, 2, 2, 1, 1, 0.000
1, 12, 5, 0, 2, 3, 1, 1, 1, 2, 0.000
1, 12, 6, 0, 1, 3, 2, 2, 1, 1, 0.000
1, 12, 7, 0, 1, 1, 2, 1, 1, 1, 0.000
1, 12, 8, 0, 2, 2, 1, 1, 1, 2, 0.000
1, 12, 9, 0, 3, 2, 1, 2, 1, 2, 0.000
1, 12, 10, 0, 2, 3, 2, 1, 2, 2, 17.000
1, 12, 11, 0, 3, 2, 1, 1, 1, 2, 0.000
1, 12, 12, 0, 1, 3, 1, 2, 1, 1, 9.000
1, 12, 13, 0, 2, 1, 2, 2, 1, 1, 33.000
1, 12, 14, 0, 1, 2, 2, 1, 1, 1, 0.000
1, 12, 15, 0, 1, 1, 1, 2, 2, 1, 1748.000
1, 12, 16, 0, 1, 1, 1, 1, 1, 1, 0.000
1, 12, 17, 0, 3, 3, 2, 1, 1, 2, 250.000
1, 12, 18, 0, 3, 1, 2, 2, 2, 2, 0.000
1, 12, 19, 0, 2, 2, 2, 1, 1, 2, 0.000
1, 12, 20, 0, 2, 2, 2, 2, 2, 1, 1982.000
1, 12, 21, 0, 3, 1, 1, 2, 1, 2, 0.000
1, 12, 22, 0, 2, 1, 1, 1, 2, 2, 86.000
1, 12, 23, 0, 1, 3, 1, 1, 1, 1, 0.000
1, 12, 24, 0, 3, 1, 1, 1, 2, 2, 1280.000
1, 12, 25, 0, 3, 2, 2, 2, 2, 2, 162.000
1, 12, 26, 0, 2, 1, 1, 2, 1, 1, 0.000
1, 12, 27, 0, 1, 1, 2, 2, 1, 1, 2254.000
1, 12, 28, 0, 3, 2, 2, 1, 2, 2, 0.000
1, 12, 29, 0, 2, 2, 1, 2, 1, 2, 0.000
1, 12, 30, 0, 2, 1, 2, 1, 1, 2, 32.000
1, 12, 31, 0, 3, 3, 1, 2, 1, 2, 20.000
1, 12, 32, 0, 2, 3, 1, 2, 2, 1, 209.000
1, 12, 33, 0, 1, 3, 2, 1, 1, 1, 81.000
1, 12, 34, 0, 3, 3, 2, 2, 1, 2, 0.000
1, 12, 35, 0, 1, 2, 1, 1, 1, 1, 0.000
1, 12, 36, 0, 2, 3, 2, 2, 1, 1, 1143.000
1, 13, 1, 0, 3, 1, 2, 2, 1, 2, 255.000
1, 13, 2, 0, 1, 2, 2, 1, 2, 1, 0.000
1, 13, 3, 0, 1, 2, 2, 2, 1, 1, 1439.000
1, 13, 4, 0, 3, 2, 1, 1, 1, 2, 25.000
1, 13, 5, 0, 1, 3, 1, 1, 2, 1, 2197.000
1, 13, 6, 0, 1, 3, 1, 2, 1, 1, 0.000
1, 13, 7, 0, 1, 2, 1, 1, 1, 1, 0.000
1, 13, 8, 0, 1, 2, 1, 2, 2, 1, 0.000
1, 13, 9, 0, 1, 1, 1, 1, 2, 1, 1573.000
1, 13, 10, 0, 3, 3, 2, 2, 1, 2, 0.000
1, 13, 11, 0, 3, 3, 1, 2, 2, 2, 0.000
1, 13, 12, 0, 2, 2, 2, 2, 2, 1, 0.000
1, 13, 13, 0, 2, 2, 2, 1, 1, 2, 0.000
1, 13, 14, 0, 3, 1, 2, 1, 1, 2, 0.000
1, 13, 15, 0, 3, 2, 2, 2, 1, 2, 0.000
1, 13, 16, 0, 3, 3, 1, 1, 2, 2, 0.000
1, 13, 17, 0, 2, 3, 2, 2, 1, 2, 1800.000
1, 13, 18, 0, 2, 1, 1, 1, 2, 2, 2466.000
1, 13, 19, 0, 2, 1, 2, 2, 2, 1, 158.000
1, 13, 20, 0, 3, 3, 2, 1, 1, 2, 0.000
1, 13, 21, 0, 1, 1, 2, 2, 1, 1, 58.000
1, 13, 22, 0, 2, 1, 1, 2, 2, 1, 0.000
1, 13, 23, 0, 3, 1, 1, 1, 2, 2, 0.000
1, 13, 24, 0, 2, 3, 2, 1, 1, 2, 76.000
1, 13, 25, 0, 2, 2, 1, 1, 2, 2, 0.000
1, 13, 26, 0, 2, 2, 1, 2, 2, 1, 0.000
1, 13, 27, 0, 3, 1, 1, 2, 1, 1, 346.000
1, 13, 28, 0, 2, 3, 1, 1, 1, 1, 0.000
1, 13, 29, 0, 2, 3, 1, 2, 2, 1, 0.000
1, 13, 30, 0, 2, 1, 2, 1, 2, 1, 2.000
1, 13, 31, 0, 3, 2, 2, 1, 2, 2, 0.000
1, 13, 32, 0, 1, 3, 2, 2, 2, 1, 0.000
1, 13, 33, 0, 1, 1, 2, 1, 2, 1, 79.000
1, 13, 34, 0, 1, 3, 2, 1, 2, 1, 0.000
1, 13, 35, 0, 3, 2, 1, 2, 1, 2, 123.000
1, 13, 36, 0, 1, 1, 1, 2, 1, 1, 83.000
