vp, block, trial, practice, featureBias, soundBias, direction, startFeature, overlap, response, RT
7, 1, 1, 1, 2, 2, 1, 2, 1, 2, 2131.000
7, 1, 2, 1, 1, 3, 2, 2, 2, 1, 641.000
7, 1, 3, 1, 1, 3, 2, 1, 1, 2, 548.000
7, 1, 4, 1, 3, 3, 2, 1, 2, 2, 730.000
7, 1, 5, 1, 2, 1, 1, 2, 2, 2, 100.000
7, 1, 6, 1, 1, 3, 1, 1, 1, 2, 84.000
7, 1, 7, 1, 3, 1, 2, 1, 1, 2, 0.000
7, 1, 8, 1, 2, 3, 1, 1, 1, 2, 0.000
7, 1, 9, 1, 3, 2, 2, 1, 2, 2, 270.000
7, 1, 10, 1, 1, 2, 2, 1, 2, 1, 516.000
7, 1, 11, 1, 3, 1, 1, 2, 1, 2, 88.000
7, 1, 12, 1, 1, 1, 1, 1, 2, 1, 224.000
7, 2, 1, 0, 2, 2, 1, 1, 1, 2, 1633.000
7, 2, 2, 0, 1, 1, 1, 1, 1, 1, 483.000
7, 2, 3, 0, 2, 2, 1, 2, 2, 2, 1051.000
7, 2, 4, 0, 1, 3, 2, 1, 2, 1, 859.000
7, 2, 5, 0, 3, 1, 1, 1, 1, 2, 721.000
7, 2, 6, 0, 3, 1, 1, 2, 2, 2, 747.000
7, 2, 7, 0, 1, 2, 2, 2, 2, 2, 719.000
7, 2, 8, 0, 2, 3, 1, 2, 1, 2, 649.000
7, 2, 9, 0, 2, 3, 2, 1, 2, 2, 345.000
7, 2, 10, 0, 3, 2, 1, 1, 2, 2, 781.000
7, 2, 11, 0, 3, 3, 2, 1, 2, 2, 563.000
7, 2, 12, 0, 2, 2, 2, 2, 2, 2, 773.000
7, 2, 13, 0, 3, 1, 2, 1, 2, 2, 245.000
7, 2, 14, 0, 1, 3, 2, 2, 2, 1, 412.000
7, 2, 15, 0, 2, 1, 2, 1, 2, 1, 469.000
7, 2, 16, 0, 1, 2, 2, 1, 2, 1, 632.000
7, 2, 17, 0, 2, 3, 2, 2, 2, 1, 788.000
7, 2, 18, 0, 3, 3, 1, 2, 2, 2, 305.000
7, 2, 19, 0, 1, 1, 2, 2, 1, 1, 1932.000
7, 2, 20, 0, 2, 1, 1, 2, 1, 2, 716.000
7, 2, 21, 0, 3, 2, 1, 2, 2, 2, 926.000
7, 2, 22, 0, 1, 1, 1, 2, 2, 2, 558.000
7, 2, 23, 0, 2, 3, 1, 1, 2, 2, 304.000
7, 2, 24, 0, 3, 3, 1, 1, 1, 2, 436.000
7, 2, 25, 0, 3, 3, 2, 2, 1, 2, 478.000
7, 2, 26, 0, 3, 2, 2, 2, 1, 2, 472.000
7, 2, 27, 0, 1, 2, 1, 2, 2, 2, 756.000
7, 2, 28, 0, 3, 2, 2, 1, 2, 2, 574.000
7, 2, 29, 0, 2, 1, 1, 1, 1, 1, 852.000
7, 2, 30, 0, 3, 1, 2, 2, 2, 1, 1660.000
7, 2, 31, 0, 2, 2, 2, 1, 1, 2, 954.000
7, 2, 32, 0, 1, 3, 1, 2, 1, 2, 3411.000
7, 2, 33, 0, 1, 2, 1, 1, 1, 1, 932.000
7, 2, 34, 0, 1, 3, 1, 1, 1, 1, 907.000
7, 2, 35, 0, 2, 1, 2, 2, 1, 1, 647.000
7, 2, 36, 0, 1, 1, 2, 1, 1, 1, 527.000
7, 3, 1, 0, 2, 2, 1, 1, 2, 2, 337.000
7, 3, 2, 0, 1, 1, 1, 1, 2, 1, 367.000
7, 3, 3, 0, 3, 2, 2, 1, 1, 2, 391.000
7, 3, 4, 0, 3, 1, 2, 1, 1, 1, 755.000
7, 3, 5, 0, 2, 1, 2, 1, 2, 1, 573.000
7, 3, 6, 0, 1, 1, 2, 1, 1, 1, 485.000
7, 3, 7, 0, 3, 3, 2, 2, 2, 2, 397.000
7, 3, 8, 0, 2, 3, 2, 1, 1, 2, 1023.000
7, 3, 9, 0, 3, 2, 2, 2, 2, 2, 557.000
7, 3, 10, 0, 1, 2, 1, 2, 1, 1, 1590.000
7, 3, 11, 0, 1, 1, 1, 2, 2, 1, 395.000
7, 3, 12, 0, 2, 2, 1, 2, 1, 2, 524.000
7, 3, 13, 0, 3, 1, 2, 2, 1, 1, 1540.000
7, 3, 14, 0, 2, 1, 2, 2, 2, 1, 658.000
7, 3, 15, 0, 2, 1, 1, 2, 1, 1, 792.000
7, 3, 16, 0, 2, 3, 2, 2, 1, 2, 2964.000
7, 3, 17, 0, 1, 3, 2, 2, 1, 1, 1556.000
7, 3, 18, 0, 2, 2, 2, 1, 2, 2, 366.000
7, 3, 19, 0, 1, 2, 2, 1, 1, 1, 462.000
7, 3, 20, 0, 3, 3, 2, 1, 2, 2, 324.000
7, 3, 21, 0, 1, 2, 1, 1, 1, 1, 540.000
7, 3, 22, 0, 3, 3, 1, 2, 2, 2, 562.000
7, 3, 23, 0, 1, 3, 2, 1, 1, 1, 636.000
7, 3, 24, 0, 3, 2, 1, 2, 1, 2, 478.000
7, 3, 25, 0, 3, 1, 1, 2, 2, 1, 2168.000
7, 3, 26, 0, 1, 1, 2, 2, 1, 1, 736.000
7, 3, 27, 0, 2, 2, 2, 2, 1, 1, 2869.000
7, 3, 28, 0, 1, 3, 1, 1, 1, 1, 545.000
7, 3, 29, 0, 3, 2, 1, 1, 1, 2, 421.000
7, 3, 30, 0, 3, 3, 1, 1, 1, 2, 603.000
7, 3, 31, 0, 2, 1, 1, 1, 2, 1, 1541.000
7, 3, 32, 0, 1, 3, 1, 2, 2, 2, 715.000
7, 3, 33, 0, 2, 3, 1, 2, 1, 2, 805.000
7, 3, 34, 0, 2, 3, 1, 1, 2, 2, 349.000
7, 3, 35, 0, 1, 2, 2, 2, 1, 1, 1145.000
7, 3, 36, 0, 3, 1, 1, 1, 2, 1, 597.000
7, 4, 1, 0, 3, 3, 2, 2, 2, 2, 243.000
7, 4, 2, 0, 2, 1, 1, 1, 2, 1, 829.000
7, 4, 3, 0, 3, 1, 2, 2, 2, 2, 1864.000
7, 4, 4, 0, 2, 1, 2, 1, 2, 1, 804.000
7, 4, 5, 0, 2, 2, 1, 1, 2, 2, 492.000
7, 4, 6, 0, 1, 1, 1, 1, 2, 1, 300.000
7, 4, 7, 0, 2, 2, 1, 2, 2, 2, 690.000
7, 4, 8, 0, 3, 2, 1, 2, 2, 2, 626.000
7, 4, 9, 0, 1, 2, 1, 2, 1, 1, 454.000
7, 4, 10, 0, 1, 3, 2, 1, 2, 1, 1388.000
7, 4, 11, 0, 1, 3, 1, 1, 2, 1, 480.000
7, 4, 12, 0, 3, 1, 2, 1, 1, 1, 1034.000
7, 4, 13, 0, 1, 2, 2, 1, 2, 1, 1540.000
7, 4, 14, 0, 3, 2, 2, 2, 1, 2, 634.000
7, 4, 15, 0, 1, 2, 2, 2, 1, 1, 652.000
7, 4, 16, 0, 2, 3, 1, 1, 1, 2, 3412.000
7, 4, 17, 0, 3, 3, 2, 1, 2, 2, 588.000
7, 4, 18, 0, 1, 1, 1, 2, 2, 1, 504.000
7, 4, 19, 0, 3, 1, 1, 2, 2, 1, 694.000
7, 4, 20, 0, 2, 3, 2, 1, 2, 2, 2340.000
7, 4, 21, 0, 1, 1, 2, 2, 1, 1, 2217.000
7, 4, 22, 0, 3, 2, 2, 1, 2, 2, 623.000
7, 4, 23, 0, 2, 3, 1, 2, 2, 2, 1277.000
7, 4, 24, 0, 3, 3, 1, 1, 2, 2, 591.000
7, 4, 25, 0, 2, 2, 2, 2, 2, 2, 515.000
7, 4, 26, 0, 3, 1, 1, 1, 2, 1, 1429.000
7, 4, 27, 0, 1, 2, 1, 1, 1, 1, 1065.000
7, 4, 28, 0, 2, 3, 2, 2, 2, 2, 677.000
7, 4, 29, 0, 1, 3, 1, 2, 2, 1, 3111.000
7, 4, 30, 0, 3, 2, 1, 1, 1, 2, 531.000
7, 4, 31, 0, 1, 1, 2, 1, 1, 1, 2659.000
7, 4, 32, 0, 2, 1, 1, 2, 1, 1, 313.000
7, 4, 33, 0, 3, 3, 1, 2, 2, 2, 516.000
7, 4, 34, 0, 1, 3, 2, 2, 1, 1, 294.000
7, 4, 35, 0, 2, 1, 2, 2, 2, 1, 1317.000
7, 4, 36, 0, 2, 2, 2, 1, 1, 2, 710.000
7, 5, 1, 0, 3, 1, 2, 2, 1, 1, 1752.000
7, 5, 2, 0, 1, 1, 1, 2, 2, 1, 524.000
7, 5, 3, 0, 2, 1, 1, 2, 2, 1, 348.000
7, 5, 4, 0, 2, 1, 2, 1, 1, 1, 464.000
7, 5, 5, 0, 2, 1, 2, 2, 1, 2, 556.000
7, 5, 6, 0, 2, 2, 2, 2, 2, 2, 1614.000
7, 5, 7, 0, 3, 1, 1, 1, 2, 1, 1132.000
7, 5, 8, 0, 2, 3, 1, 1, 1, 2, 3484.000
7, 5, 9, 0, 1, 2, 1, 1, 1, 1, 396.000
7, 5, 10, 0, 1, 3, 1, 2, 1, 1, 653.000
7, 5, 11, 0, 3, 2, 2, 2, 1, 2, 580.000
7, 5, 12, 0, 2, 3, 1, 2, 1, 2, 810.000
7, 5, 13, 0, 2, 3, 2, 1, 2, 2, 609.000
7, 5, 14, 0, 1, 3, 1, 1, 1, 1, 1393.000
7, 5, 15, 0, 2, 2, 2, 1, 1, 1, 701.000
7, 5, 16, 0, 3, 3, 1, 2, 1, 2, 251.000
7, 5, 17, 0, 1, 2, 2, 1, 1, 1, 2539.000
7, 5, 18, 0, 3, 1, 2, 1, 1, 2, 1121.000
7, 5, 19, 0, 3, 3, 2, 1, 2, 2, 331.000
7, 5, 20, 0, 3, 2, 1, 1, 2, 2, 611.000
7, 5, 21, 0, 2, 2, 1, 2, 2, 2, 707.000
7, 5, 22, 0, 2, 1, 1, 1, 1, 1, 1015.000
7, 5, 23, 0, 1, 2, 2, 2, 2, 1, 733.000
7, 5, 24, 0, 2, 2, 1, 1, 1, 2, 653.000
7, 5, 25, 0, 3, 1, 1, 2, 1, 2, 693.000
7, 5, 26, 0, 1, 3, 2, 2, 2, 1, 621.000
7, 5, 27, 0, 3, 3, 2, 2, 1, 2, 267.000
7, 5, 28, 0, 1, 1, 1, 1, 1, 1, 623.000
7, 5, 29, 0, 1, 3, 2, 1, 2, 1, 700.000
7, 5, 30, 0, 1, 2, 1, 2, 1, 1, 794.000
7, 5, 31, 0, 1, 1, 2, 2, 2, 1, 796.000
7, 5, 32, 0, 2, 3, 2, 2, 1, 1, 390.000
7, 5, 33, 0, 3, 2, 2, 1, 1, 2, 362.000
7, 5, 34, 0, 3, 3, 1, 1, 2, 2, 1260.000
7, 5, 35, 0, 1, 1, 2, 1, 2, 1, 658.000
7, 5, 36, 0, 3, 2, 1, 2, 2, 2, 1976.000
7, 6, 1, 0, 3, 3, 1, 1, 2, 2, 148.000
7, 6, 2, 0, 2, 3, 2, 2, 1, 1, 144.000
7, 6, 3, 0, 2, 2, 1, 1, 1, 2, 1756.000
7, 6, 4, 0, 1, 1, 2, 2, 2, 1, 310.000
7, 6, 5, 0, 3, 2, 1, 2, 1, 2, 634.000
7, 6, 6, 0, 1, 2, 1, 2, 1, 1, 924.000
7, 6, 7, 0, 1, 3, 2, 2, 2, 1, 262.000
7, 6, 8, 0, 2, 2, 1, 2, 1, 1, 467.000
7, 6, 9, 0, 3, 1, 1, 2, 2, 2, 343.000
7, 6, 10, 0, 2, 1, 2, 1, 2, 1, 659.000
7, 6, 11, 0, 1, 3, 1, 1, 2, 1, 3249.000
7, 6, 12, 0, 3, 3, 2, 1, 1, 2, 225.000
7, 6, 13, 0, 1, 2, 1, 1, 2, 2, 2061.000
7, 6, 14, 0, 1, 3, 2, 1, 1, 1, 723.000
7, 6, 15, 0, 3, 1, 2, 1, 2, 2, 845.000
7, 6, 16, 0, 3, 3, 2, 2, 2, 2, 1421.000
7, 6, 17, 0, 3, 1, 2, 2, 1, 2, 187.000
7, 6, 18, 0, 2, 1, 2, 2, 2, 2, 383.000
7, 6, 19, 0, 1, 2, 2, 1, 1, 1, 381.000
7, 6, 20, 0, 3, 2, 1, 1, 1, 2, 291.000
7, 6, 21, 0, 1, 2, 2, 2, 1, 1, 179.000
7, 6, 22, 0, 1, 1, 1, 1, 2, 1, 337.000
7, 6, 23, 0, 1, 1, 1, 2, 1, 1, 191.000
7, 6, 24, 0, 1, 3, 1, 2, 1, 1, 234.000
7, 6, 25, 0, 3, 3, 1, 2, 1, 2, 124.000
7, 6, 26, 0, 2, 3, 2, 1, 1, 1, 214.000
7, 6, 27, 0, 2, 1, 1, 1, 2, 2, 372.000
7, 6, 28, 0, 3, 2, 2, 1, 2, 2, 260.000
7, 6, 29, 0, 2, 1, 1, 2, 1, 1, 106.000
7, 6, 30, 0, 2, 2, 2, 1, 1, 2, 158.000
7, 6, 31, 0, 2, 3, 1, 1, 1, 2, 200.000
7, 6, 32, 0, 2, 2, 2, 2, 1, 1, 2.000
7, 6, 33, 0, 3, 1, 1, 1, 2, 2, 756.000
7, 6, 34, 0, 1, 1, 2, 1, 1, 1, 1334.000
7, 6, 35, 0, 2, 3, 1, 2, 2, 2, 644.000
7, 6, 36, 0, 3, 2, 2, 2, 1, 2, 100.000
7, 7, 1, 0, 2, 1, 2, 1, 1, 1, 510.000
7, 7, 2, 0, 3, 1, 2, 2, 2, 2, 410.000
7, 7, 3, 0, 3, 1, 2, 1, 1, 2, 170.000
7, 7, 4, 0, 1, 2, 2, 1, 1, 1, 562.000
7, 7, 5, 0, 3, 3, 2, 2, 1, 2, 460.000
7, 7, 6, 0, 3, 3, 1, 1, 1, 2, 505.000
7, 7, 7, 0, 2, 2, 1, 1, 1, 2, 373.000
7, 7, 8, 0, 2, 2, 2, 1, 1, 2, 83.000
7, 7, 9, 0, 1, 3, 1, 1, 1, 1, 83.000
7, 7, 10, 0, 3, 2, 2, 1, 1, 2, 197.000
7, 7, 11, 0, 3, 2, 2, 2, 1, 2, 415.000
7, 7, 12, 0, 2, 2, 2, 2, 2, 1, 0.000
7, 7, 13, 0, 1, 2, 1, 2, 2, 1, 263.000
7, 7, 14, 0, 1, 1, 2, 2, 2, 1, 149.000
7, 7, 15, 0, 1, 3, 2, 1, 1, 1, 241.000
7, 7, 16, 0, 2, 1, 2, 2, 1, 1, 75.000
7, 7, 17, 0, 3, 3, 1, 2, 1, 2, 0.000
7, 7, 18, 0, 1, 3, 2, 2, 2, 1, 41.000
7, 7, 19, 0, 3, 2, 1, 2, 2, 2, 323.000
7, 7, 20, 0, 1, 2, 1, 1, 1, 1, 189.000
7, 7, 21, 0, 1, 1, 1, 1, 1, 1, 169.000
7, 7, 22, 0, 1, 3, 1, 2, 1, 1, 296.000
7, 7, 23, 0, 1, 2, 2, 2, 1, 1, 158.000
7, 7, 24, 0, 3, 3, 2, 1, 1, 2, 0.000
7, 7, 25, 0, 2, 2, 1, 2, 2, 1, 402.000
7, 7, 26, 0, 2, 3, 2, 1, 1, 1, 317.000
7, 7, 27, 0, 3, 1, 1, 1, 1, 2, 542.000
7, 7, 28, 0, 2, 3, 2, 2, 2, 1, 1300.000
7, 7, 29, 0, 1, 1, 1, 2, 1, 1, 850.000
7, 7, 30, 0, 3, 2, 1, 1, 2, 2, 338.000
7, 7, 31, 0, 1, 1, 2, 1, 2, 1, 784.000
7, 7, 32, 0, 2, 1, 1, 1, 2, 2, 660.000
7, 7, 33, 0, 2, 3, 1, 1, 1, 2, 146.000
7, 7, 34, 0, 2, 3, 1, 2, 2, 2, 38.000
7, 7, 35, 0, 3, 1, 1, 2, 2, 2, 186.000
7, 7, 36, 0, 2, 1, 1, 2, 2, 2, 0.000
7, 8, 1, 0, 3, 2, 2, 2, 1, 2, 158.000
7, 8, 2, 0, 3, 1, 2, 2, 2, 2, 1111.000
7, 8, 3, 0, 2, 2, 2, 2, 2, 1, 6107.000
7, 8, 4, 0, 3, 1, 2, 1, 2, 2, 423.000
7, 8, 5, 0, 1, 3, 1, 1, 2, 1, 53.000
7, 8, 6, 0, 2, 1, 1, 1, 2, 2, 189.000
7, 8, 7, 0, 1, 1, 1, 1, 1, 1, 0.000
7, 8, 8, 0, 1, 2, 1, 2, 2, 1, 123.000
7, 8, 9, 0, 3, 3, 2, 1, 1, 2, 0.000
7, 8, 10, 0, 1, 2, 1, 1, 2, 1, 1247.000
7, 8, 11, 0, 1, 3, 2, 2, 1, 1, 0.000
7, 8, 12, 0, 1, 3, 2, 1, 2, 1, 81.000
7, 8, 13, 0, 3, 2, 1, 1, 2, 2, 35.000
7, 8, 14, 0, 2, 3, 2, 1, 1, 2, 293.000
7, 8, 15, 0, 1, 3, 1, 2, 1, 1, 165.000
7, 8, 16, 0, 2, 3, 1, 1, 1, 2, 1189.000
7, 8, 17, 0, 1, 1, 2, 2, 1, 1, 113.000
7, 8, 18, 0, 2, 3, 2, 2, 1, 1, 253.000
7, 8, 19, 0, 3, 3, 1, 1, 1, 2, 0.000
7, 8, 20, 0, 1, 1, 2, 1, 2, 1, 0.000
7, 8, 21, 0, 3, 2, 1, 2, 2, 2, 0.000
7, 8, 22, 0, 1, 2, 2, 2, 1, 1, 0.000
7, 8, 23, 0, 3, 2, 2, 1, 2, 2, 0.000
7, 8, 24, 0, 1, 1, 1, 2, 2, 1, 0.000
7, 8, 25, 0, 2, 1, 2, 2, 2, 1, 216.000
7, 8, 26, 0, 2, 1, 2, 1, 2, 1, 542.000
7, 8, 27, 0, 3, 3, 1, 2, 2, 2, 212.000
7, 8, 28, 0, 2, 2, 1, 1, 2, 2, 92.000
7, 8, 29, 0, 1, 2, 2, 1, 1, 1, 0.000
7, 8, 30, 0, 2, 3, 1, 2, 1, 2, 0.000
7, 8, 31, 0, 3, 1, 1, 1, 1, 2, 152.000
7, 8, 32, 0, 2, 1, 1, 2, 1, 2, 204.000
7, 8, 33, 0, 3, 1, 1, 2, 1, 2, 28.000
7, 8, 34, 0, 2, 2, 1, 2, 2, 2, 138.000
7, 8, 35, 0, 2, 2, 2, 1, 2, 2, 112.000
7, 8, 36, 0, 3, 3, 2, 2, 2, 2, 0.000
7, 9, 1, 0, 3, 1, 2, 2, 2, 2, 1900.000
7, 9, 2, 0, 1, 3, 2, 1, 1, 1, 0.000
7, 9, 3, 0, 2, 2, 2, 1, 1, 1, 0.000
7, 9, 4, 0, 1, 1, 2, 1, 2, 1, 0.000
7, 9, 5, 0, 1, 2, 1, 1, 1, 1, 0.000
7, 9, 6, 0, 3, 2, 1, 2, 2, 2, 2537.000
7, 9, 7, 0, 2, 3, 1, 1, 2, 2, 0.000
7, 9, 8, 0, 2, 3, 2, 1, 1, 2, 0.000
7, 9, 9, 0, 3, 3, 2, 2, 1, 2, 0.000
7, 9, 10, 0, 1, 3, 1, 1, 2, 1, 1317.000
7, 9, 11, 0, 3, 1, 1, 2, 1, 2, 543.000
7, 9, 12, 0, 2, 2, 1, 1, 2, 2, 661.000
7, 9, 13, 0, 2, 3, 2, 2, 1, 2, 3.000
7, 9, 14, 0, 1, 3, 2, 2, 1, 1, 2445.000
7, 9, 15, 0, 1, 1, 2, 2, 1, 1, 189.000
7, 9, 16, 0, 3, 2, 1, 1, 1, 2, 1049.000
7, 9, 17, 0, 1, 1, 1, 2, 1, 1, 329.000
7, 9, 18, 0, 3, 3, 1, 2, 1, 2, 49.000
7, 9, 19, 0, 3, 1, 2, 1, 1, 2, 233.000
7, 9, 20, 0, 1, 3, 1, 2, 2, 1, 0.000
7, 9, 21, 0, 2, 3, 1, 2, 1, 1, 782.000
7, 9, 22, 0, 1, 2, 2, 2, 1, 1, 92.000
7, 9, 23, 0, 3, 2, 2, 2, 2, 2, 836.000
7, 9, 24, 0, 2, 1, 2, 1, 1, 1, 70.000
7, 9, 25, 0, 3, 1, 1, 1, 2, 2, 474.000
7, 9, 26, 0, 2, 1, 1, 1, 1, 2, 100.000
7, 9, 27, 0, 3, 3, 2, 1, 2, 2, 10.000
7, 9, 28, 0, 1, 1, 1, 1, 2, 1, 90.000
7, 9, 29, 0, 2, 1, 1, 2, 2, 2, 378.000
7, 9, 30, 0, 2, 2, 2, 2, 2, 2, 352.000
7, 9, 31, 0, 1, 2, 2, 1, 2, 1, 300.000
7, 9, 32, 0, 3, 3, 1, 1, 2, 2, 178.000
7, 9, 33, 0, 2, 1, 2, 2, 2, 1, 144.000
7, 9, 34, 0, 2, 2, 1, 2, 1, 2, 318.000
7, 9, 35, 0, 3, 2, 2, 1, 2, 2, 128.000
7, 9, 36, 0, 1, 2, 1, 2, 2, 1, 0.000
7, 10, 1, 0, 3, 1, 2, 1, 1, 2, 401.000
7, 10, 2, 0, 3, 1, 1, 1, 1, 2, 0.000
7, 10, 3, 0, 2, 1, 1, 1, 1, 1, 14.000
7, 10, 4, 0, 2, 2, 1, 1, 2, 2, 275.000
7, 10, 5, 0, 2, 2, 1, 2, 1, 2, 605.000
7, 10, 6, 0, 1, 3, 1, 1, 1, 1, 197.000
7, 10, 7, 0, 1, 3, 1, 2, 1, 1, 71.000
7, 10, 8, 0, 2, 2, 2, 1, 2, 2, 627.000
7, 10, 9, 0, 1, 1, 1, 1, 1, 1, 447.000
7, 10, 10, 0, 1, 1, 2, 1, 2, 1, 127.000
7, 10, 11, 0, 2, 1, 2, 1, 2, 1, 279.000
7, 10, 12, 0, 2, 2, 2, 2, 2, 1, 217.000
7, 10, 13, 0, 1, 3, 2, 2, 2, 2, 263.000
7, 10, 14, 0, 3, 3, 1, 1, 2, 2, 197.000
7, 10, 15, 0, 2, 3, 2, 1, 1, 1, 95.000
7, 10, 16, 0, 3, 2, 2, 1, 2, 2, 269.000
7, 10, 17, 0, 1, 2, 1, 1, 2, 1, 105.000
7, 10, 18, 0, 3, 3, 2, 1, 2, 2, 964.000
7, 10, 19, 0, 3, 1, 2, 2, 2, 2, 197.000
7, 10, 20, 0, 1, 1, 1, 2, 2, 1, 55.000
7, 10, 21, 0, 1, 2, 2, 2, 2, 1, 780.000
7, 10, 22, 0, 1, 2, 2, 1, 1, 1, 570.000
7, 10, 23, 0, 3, 2, 1, 2, 2, 2, 394.000
7, 10, 24, 0, 1, 1, 2, 2, 2, 1, 60.000
7, 10, 25, 0, 3, 2, 1, 1, 2, 2, 50.000
7, 10, 26, 0, 2, 1, 1, 2, 1, 2, 122.000
7, 10, 27, 0, 2, 3, 1, 1, 2, 2, 0.000
7, 10, 28, 0, 2, 3, 2, 2, 1, 1, 0.000
7, 10, 29, 0, 3, 3, 1, 2, 2, 2, 720.000
7, 10, 30, 0, 3, 2, 2, 2, 1, 2, 226.000
7, 10, 31, 0, 2, 3, 1, 2, 2, 2, 270.000
7, 10, 32, 0, 3, 1, 1, 2, 1, 2, 498.000
7, 10, 33, 0, 2, 1, 2, 2, 1, 1, 8.000
7, 10, 34, 0, 1, 2, 1, 2, 2, 1, 944.000
7, 10, 35, 0, 3, 3, 2, 2, 2, 2, 692.000
7, 10, 36, 0, 1, 3, 2, 1, 2, 1, 108.000
7, 11, 1, 0, 3, 1, 1, 2, 1, 2, 477.000
7, 11, 2, 0, 3, 2, 2, 2, 2, 2, 200.000
7, 11, 3, 0, 1, 1, 2, 2, 1, 1, 217.000
7, 11, 4, 0, 3, 1, 1, 1, 2, 2, 1079.000
7, 11, 5, 0, 2, 3, 2, 1, 1, 1, 1113.000
7, 11, 6, 0, 3, 1, 2, 2, 2, 2, 523.000
7, 11, 7, 0, 1, 3, 2, 2, 1, 1, 1421.000
7, 11, 8, 0, 1, 3, 1, 1, 1, 1, 187.000
7, 11, 9, 0, 3, 3, 2, 1, 1, 2, 0.000
7, 11, 10, 0, 2, 1, 1, 1, 2, 2, 89.000
7, 11, 11, 0, 2, 2, 1, 1, 2, 2, 1273.000
7, 11, 12, 0, 3, 2, 1, 1, 1, 2, 341.000
7, 11, 13, 0, 2, 1, 2, 2, 2, 1, 243.000
7, 11, 14, 0, 2, 3, 1, 2, 2, 2, 93.000
7, 11, 15, 0, 2, 1, 1, 2, 1, 2, 389.000
7, 11, 16, 0, 2, 1, 2, 1, 2, 1, 249.000
7, 11, 17, 0, 1, 3, 2, 1, 1, 1, 392.000
7, 11, 18, 0, 3, 2, 2, 1, 2, 2, 133.000
7, 11, 19, 0, 1, 3, 1, 2, 2, 1, 836.000
7, 11, 20, 0, 1, 2, 2, 2, 2, 1, 678.000
7, 11, 21, 0, 2, 3, 2, 2, 2, 1, 200.000
7, 11, 22, 0, 2, 2, 2, 1, 1, 1, 354.000
7, 11, 23, 0, 3, 3, 1, 2, 2, 2, 20.000
7, 11, 24, 0, 1, 2, 1, 2, 1, 1, 490.000
7, 11, 25, 0, 2, 2, 1, 2, 1, 2, 218.000
7, 11, 26, 0, 2, 3, 1, 1, 2, 2, 288.000
7, 11, 27, 0, 1, 1, 1, 2, 1, 1, 376.000
7, 11, 28, 0, 1, 2, 1, 1, 1, 1, 358.000
7, 11, 29, 0, 2, 2, 2, 2, 1, 1, 368.000
7, 11, 30, 0, 3, 1, 2, 1, 2, 2, 200.000
7, 11, 31, 0, 1, 2, 2, 1, 2, 1, 370.000
7, 11, 32, 0, 1, 1, 2, 1, 1, 1, 394.000
7, 11, 33, 0, 3, 3, 2, 2, 2, 2, 52.000
7, 11, 34, 0, 1, 1, 1, 1, 1, 1, 732.000
7, 11, 35, 0, 3, 2, 1, 2, 1, 2, 308.000
7, 11, 36, 0, 3, 3, 1, 1, 1, 2, 0.000
7, 12, 1, 0, 1, 1, 2, 1, 2, 2, 1879.000
7, 12, 2, 0, 3, 3, 1, 2, 1, 2, 105.000
7, 12, 3, 0, 3, 3, 2, 1, 2, 2, 0.000
7, 12, 4, 0, 1, 3, 2, 1, 1, 1, 0.000
7, 12, 5, 0, 1, 1, 2, 2, 1, 1, 4393.000
7, 12, 6, 0, 2, 1, 1, 2, 2, 2, 597.000
7, 12, 7, 0, 2, 2, 2, 1, 2, 1, 639.000
7, 12, 8, 0, 2, 1, 2, 2, 2, 1, 193.000
7, 12, 9, 0, 3, 2, 1, 2, 1, 2, 557.000
7, 12, 10, 0, 3, 3, 2, 2, 1, 2, 166.000
7, 12, 11, 0, 3, 1, 1, 1, 2, 2, 295.000
7, 12, 12, 0, 1, 2, 2, 2, 2, 1, 125.000
7, 12, 13, 0, 3, 2, 2, 2, 1, 2, 158.000
7, 12, 14, 0, 3, 2, 2, 1, 1, 2, 480.000
7, 12, 15, 0, 2, 3, 1, 2, 1, 2, 138.000
7, 12, 16, 0, 1, 3, 2, 2, 2, 1, 184.000
7, 12, 17, 0, 1, 3, 1, 1, 2, 1, 188.000
7, 12, 18, 0, 2, 2, 2, 2, 2, 1, 328.000
7, 12, 19, 0, 2, 2, 1, 1, 2, 2, 200.000
7, 12, 20, 0, 1, 3, 1, 2, 2, 1, 290.000
7, 12, 21, 0, 2, 3, 2, 1, 2, 1, 162.000
7, 12, 22, 0, 2, 1, 2, 1, 1, 1, 68.000
7, 12, 23, 0, 3, 1, 2, 2, 1, 2, 0.000
7, 12, 24, 0, 1, 1, 1, 1, 2, 1, 0.000
7, 12, 25, 0, 1, 1, 1, 2, 2, 1, 0.000
7, 12, 26, 0, 1, 2, 2, 1, 1, 1, 46.000
7, 12, 27, 0, 2, 3, 2, 2, 2, 1, 78.000
7, 12, 28, 0, 2, 3, 1, 1, 2, 2, 0.000
7, 12, 29, 0, 2, 2, 1, 2, 2, 2, 844.000
7, 12, 30, 0, 2, 1, 1, 1, 1, 2, 564.000
7, 12, 31, 0, 3, 3, 1, 1, 2, 2, 252.000
7, 12, 32, 0, 1, 2, 1, 1, 1, 1, 67.000
7, 12, 33, 0, 3, 2, 1, 1, 2, 2, 690.000
7, 12, 34, 0, 3, 1, 2, 1, 1, 2, 2209.000
7, 12, 35, 0, 1, 2, 1, 2, 2, 1, 713.000
7, 12, 36, 0, 3, 1, 1, 2, 2, 2, 1141.000
7, 13, 1, 0, 3, 2, 1, 2, 1, 2, 873.000
7, 13, 2, 0, 3, 3, 1, 2, 2, 2, 0.000
7, 13, 3, 0, 2, 1, 1, 2, 1, 1, 151.000
7, 13, 4, 0, 3, 2, 2, 1, 1, 2, 2067.000
7, 13, 5, 0, 1, 1, 2, 2, 1, 1, 207.000
7, 13, 6, 0, 2, 3, 2, 1, 1, 1, 367.000
7, 13, 7, 0, 2, 3, 1, 1, 2, 2, 487.000
7, 13, 8, 0, 3, 1, 2, 1, 1, 2, 655.000
7, 13, 9, 0, 1, 3, 2, 1, 1, 1, 341.000
7, 13, 10, 0, 1, 2, 2, 1, 1, 1, 475.000
7, 13, 11, 0, 2, 2, 1, 2, 1, 1, 500.000
7, 13, 12, 0, 2, 3, 1, 2, 2, 2, 178.000
7, 13, 13, 0, 1, 3, 2, 2, 1, 1, 248.000
7, 13, 14, 0, 3, 3, 1, 1, 2, 2, 848.000
7, 13, 15, 0, 3, 2, 1, 1, 2, 2, 0.000
7, 13, 16, 0, 1, 1, 2, 1, 1, 1, 0.000
7, 13, 17, 0, 3, 1, 2, 2, 2, 2, 0.000
7, 13, 18, 0, 1, 3, 1, 2, 1, 1, 198.000
7, 13, 19, 0, 2, 2, 2, 2, 1, 1, 312.000
7, 13, 20, 0, 2, 2, 1, 1, 2, 2, 0.000
7, 13, 21, 0, 3, 3, 2, 2, 1, 2, 0.000
7, 13, 22, 0, 1, 2, 2, 2, 1, 1, 0.000
7, 13, 23, 0, 3, 1, 1, 2, 1, 2, 850.000
7, 13, 24, 0, 1, 1, 1, 1, 1, 1, 146.000
7, 13, 25, 0, 1, 1, 1, 2, 1, 1, 214.000
7, 13, 26, 0, 3, 2, 2, 2, 1, 2, 1884.000
7, 13, 27, 0, 3, 1, 1, 1, 2, 2, 2220.000
7, 13, 28, 0, 1, 2, 1, 1, 1, 1, 585.000
7, 13, 29, 0, 2, 2, 2, 1, 2, 2, 1989.000
7, 13, 30, 0, 2, 3, 2, 2, 1, 1, 585.000
7, 13, 31, 0, 1, 2, 1, 2, 1, 1, 181.000
7, 13, 32, 0, 2, 1, 2, 1, 2, 1, 235.000
7, 13, 33, 0, 1, 3, 1, 1, 2, 1, 1173.000
7, 13, 34, 0, 3, 3, 2, 1, 1, 2, 437.000
7, 13, 35, 0, 2, 1, 2, 2, 1, 2, 967.000
7, 13, 36, 0, 2, 1, 1, 1, 2, 1, 687.000
