vp, block, trial, practice, featureBias, soundBias, direction, startFeature, overlap, response, RT
11, 1, 1, 1, 1, 3, 2, 2, 2, 2, 7962.000
11, 1, 2, 1, 1, 3, 1, 1, 1, 2, 1666.000
11, 1, 3, 1, 2, 3, 2, 2, 1, 1, 984.000
11, 1, 4, 1, 1, 2, 2, 1, 2, 2, 102.000
11, 1, 5, 1, 2, 1, 1, 1, 2, 1, 5996.000
11, 1, 6, 1, 2, 1, 1, 2, 2, 1, 112.000
11, 1, 7, 1, 3, 2, 1, 2, 1, 2, 76.000
11, 1, 8, 1, 1, 3, 1, 2, 1, 1, 200.000
11, 1, 9, 1, 3, 2, 2, 2, 1, 2, 0.000
11, 1, 10, 1, 3, 2, 2, 1, 1, 2, 0.000
11, 1, 11, 1, 3, 3, 1, 1, 1, 2, 220.000
11, 1, 12, 1, 2, 1, 2, 2, 2, 1, 0.000
11, 2, 1, 0, 2, 3, 1, 2, 1, 1, 27.000
11, 2, 2, 0, 3, 3, 2, 1, 1, 2, 0.000
11, 2, 3, 0, 2, 3, 2, 2, 1, 2, 1.000
11, 2, 4, 0, 2, 2, 2, 2, 2, 2, 0.000
11, 2, 5, 0, 3, 2, 1, 2, 1, 2, 0.000
11, 2, 6, 0, 1, 1, 1, 1, 1, 1, 0.000
11, 2, 7, 0, 2, 3, 1, 1, 1, 2, 0.000
11, 2, 8, 0, 1, 3, 2, 2, 2, 2, 0.000
11, 2, 9, 0, 1, 2, 1, 2, 1, 1, 283.000
11, 2, 10, 0, 3, 2, 2, 1, 2, 2, 523.000
11, 2, 11, 0, 2, 2, 1, 2, 2, 2, 0.000
11, 2, 12, 0, 2, 3, 2, 1, 1, 2, 0.000
11, 2, 13, 0, 1, 2, 2, 2, 1, 1, 0.000
11, 2, 14, 0, 3, 1, 1, 2, 1, 2, 0.000
11, 2, 15, 0, 1, 1, 2, 2, 2, 1, 0.000
11, 2, 16, 0, 1, 3, 1, 1, 2, 1, 332.000
11, 2, 17, 0, 3, 3, 2, 2, 2, 2, 74.000
11, 2, 18, 0, 1, 2, 1, 1, 1, 1, 180.000
11, 2, 19, 0, 3, 3, 1, 2, 2, 2, 0.000
11, 2, 20, 0, 1, 2, 2, 1, 1, 1, 0.000
11, 2, 21, 0, 3, 1, 2, 2, 2, 2, 86.000
11, 2, 22, 0, 1, 1, 2, 1, 2, 1, 0.000
11, 2, 23, 0, 3, 3, 1, 1, 2, 2, 0.000
11, 2, 24, 0, 1, 1, 1, 2, 1, 1, 0.000
11, 2, 25, 0, 2, 1, 2, 1, 1, 2, 0.000
11, 2, 26, 0, 3, 1, 1, 1, 2, 2, 38.000
11, 2, 27, 0, 1, 3, 1, 2, 2, 1, 160.000
11, 2, 28, 0, 3, 1, 2, 1, 2, 2, 0.000
11, 2, 29, 0, 3, 2, 1, 1, 1, 2, 0.000
11, 2, 30, 0, 2, 1, 2, 2, 1, 1, 0.000
11, 2, 31, 0, 2, 1, 1, 1, 2, 1, 0.000
11, 2, 32, 0, 1, 3, 2, 1, 1, 1, 313.000
11, 2, 33, 0, 2, 2, 2, 1, 2, 1, 43.000
11, 2, 34, 0, 2, 1, 1, 2, 2, 1, 0.000
11, 2, 35, 0, 2, 2, 1, 1, 1, 1, 0.000
11, 2, 36, 0, 3, 2, 2, 2, 1, 2, 0.000
11, 3, 1, 0, 3, 1, 2, 1, 1, 2, 0.000
11, 3, 2, 0, 3, 3, 2, 2, 2, 2, 0.000
11, 3, 3, 0, 1, 1, 2, 2, 2, 1, 0.000
11, 3, 4, 0, 3, 2, 1, 2, 2, 2, 0.000
11, 3, 5, 0, 1, 3, 2, 2, 2, 1, 0.000
11, 3, 6, 0, 1, 3, 1, 2, 2, 1, 0.000
11, 3, 7, 0, 1, 3, 1, 1, 2, 1, 0.000
11, 3, 8, 0, 1, 1, 2, 1, 1, 1, 0.000
11, 3, 9, 0, 3, 2, 2, 2, 1, 2, 0.000
11, 3, 10, 0, 2, 1, 1, 2, 1, 1, 0.000
11, 3, 11, 0, 3, 2, 1, 1, 2, 2, 0.000
11, 3, 12, 0, 2, 1, 2, 2, 2, 1, 0.000
11, 3, 13, 0, 2, 2, 2, 2, 1, 1, 0.000
11, 3, 14, 0, 2, 3, 1, 2, 2, 1, 0.000
11, 3, 15, 0, 2, 2, 1, 2, 1, 1, 0.000
11, 3, 16, 0, 2, 3, 2, 2, 2, 1, 0.000
11, 3, 17, 0, 3, 1, 2, 2, 2, 2, 0.000
11, 3, 18, 0, 3, 2, 2, 1, 1, 2, 0.000
11, 3, 19, 0, 2, 2, 2, 1, 1, 1, 0.000
11, 3, 20, 0, 2, 1, 1, 1, 2, 1, 686.000
11, 3, 21, 0, 1, 2, 2, 2, 1, 2, 110.000
11, 3, 22, 0, 2, 2, 1, 1, 1, 1, 0.000
11, 3, 23, 0, 1, 2, 1, 1, 2, 1, 0.000
11, 3, 24, 0, 1, 2, 2, 1, 2, 1, 0.000
11, 3, 25, 0, 1, 3, 2, 1, 2, 1, 0.000
11, 3, 26, 0, 2, 1, 2, 1, 2, 1, 5418.000
11, 3, 27, 0, 1, 2, 1, 2, 1, 1, 0.000
11, 3, 28, 0, 3, 3, 1, 2, 2, 2, 0.000
11, 3, 29, 0, 3, 3, 1, 1, 2, 2, 2548.000
11, 3, 30, 0, 3, 1, 1, 2, 2, 2, 0.000
11, 3, 31, 0, 2, 3, 1, 1, 1, 2, 0.000
11, 3, 32, 0, 1, 1, 1, 1, 1, 1, 0.000
11, 3, 33, 0, 1, 1, 1, 2, 2, 1, 0.000
11, 3, 34, 0, 2, 3, 2, 1, 2, 1, 0.000
11, 3, 35, 0, 3, 1, 1, 1, 2, 2, 2457.000
11, 3, 36, 0, 3, 3, 2, 1, 1, 2, 0.000
11, 4, 1, 0, 3, 3, 1, 1, 1, 2, 2415.000
11, 4, 2, 0, 1, 1, 2, 2, 2, 1, 0.000
11, 4, 3, 0, 3, 2, 1, 2, 1, 2, 0.000
11, 4, 4, 0, 2, 3, 1, 2, 2, 1, 0.000
11, 4, 5, 0, 3, 1, 2, 2, 1, 2, 0.000
11, 4, 6, 0, 3, 2, 1, 1, 1, 2, 0.000
11, 4, 7, 0, 1, 1, 1, 2, 2, 1, 0.000
11, 4, 8, 0, 2, 1, 1, 2, 2, 1, 0.000
11, 4, 9, 0, 1, 3, 2, 1, 2, 1, 0.000
11, 4, 10, 0, 1, 3, 2, 2, 1, 1, 0.000
11, 4, 11, 0, 3, 3, 2, 1, 1, 2, 0.000
11, 4, 12, 0, 3, 1, 2, 1, 2, 1, 0.000
11, 4, 13, 0, 1, 1, 1, 1, 2, 1, 0.000
11, 4, 14, 0, 2, 1, 1, 1, 2, 1, 0.000
11, 4, 15, 0, 1, 1, 2, 1, 2, 1, 0.000
11, 4, 16, 0, 2, 2, 2, 2, 1, 1, 0.000
11, 4, 17, 0, 1, 2, 1, 2, 2, 1, 0.000
11, 4, 18, 0, 1, 2, 2, 1, 1, 1, 0.000
11, 4, 19, 0, 3, 2, 2, 2, 1, 2, 0.000
11, 4, 20, 0, 3, 3, 2, 2, 1, 2, 0.000
11, 4, 21, 0, 2, 1, 2, 1, 2, 1, 0.000
11, 4, 22, 0, 2, 3, 2, 2, 2, 1, 0.000
11, 4, 23, 0, 1, 2, 2, 2, 1, 1, 0.000
11, 4, 24, 0, 1, 3, 1, 2, 1, 1, 0.000
11, 4, 25, 0, 1, 2, 1, 1, 1, 1, 0.000
11, 4, 26, 0, 3, 1, 1, 1, 2, 2, 0.000
11, 4, 27, 0, 2, 3, 2, 1, 2, 1, 0.000
11, 4, 28, 0, 2, 3, 1, 1, 1, 1, 1864.000
11, 4, 29, 0, 1, 3, 1, 1, 2, 1, 2379.000
11, 4, 30, 0, 2, 1, 2, 2, 1, 1, 0.000
11, 4, 31, 0, 2, 2, 1, 1, 2, 1, 0.000
11, 4, 32, 0, 3, 2, 2, 1, 1, 2, 1589.000
11, 4, 33, 0, 3, 1, 1, 2, 1, 2, 0.000
11, 4, 34, 0, 2, 2, 2, 1, 1, 1, 0.000
11, 4, 35, 0, 2, 2, 1, 2, 1, 1, 0.000
11, 4, 36, 0, 3, 3, 1, 2, 2, 2, 1607.000
11, 5, 1, 0, 1, 3, 2, 1, 1, 2, 0.000
11, 5, 2, 0, 3, 3, 1, 2, 2, 2, 1327.000
11, 5, 3, 0, 2, 2, 1, 2, 2, 2, 1495.000
11, 5, 4, 0, 2, 1, 2, 1, 1, 1, 0.000
11, 5, 5, 0, 1, 3, 2, 2, 1, 1, 151.000
11, 5, 6, 0, 1, 1, 2, 2, 1, 1, 0.000
11, 5, 7, 0, 1, 1, 2, 1, 2, 1, 204.000
11, 5, 8, 0, 1, 2, 2, 2, 1, 1, 0.000
11, 5, 9, 0, 3, 3, 2, 1, 1, 2, 1398.000
11, 5, 10, 0, 2, 2, 2, 2, 1, 1, 0.000
11, 5, 11, 0, 1, 1, 1, 1, 2, 1, 0.000
11, 5, 12, 0, 1, 1, 1, 2, 2, 1, 0.000
11, 5, 13, 0, 1, 3, 1, 1, 1, 1, 0.000
11, 5, 14, 0, 3, 3, 2, 2, 2, 2, 1016.000
11, 5, 15, 0, 2, 2, 1, 1, 1, 1, 0.000
11, 5, 16, 0, 2, 1, 2, 2, 2, 1, 0.000
11, 5, 17, 0, 2, 2, 2, 1, 2, 1, 0.000
11, 5, 18, 0, 2, 3, 1, 1, 1, 1, 0.000
11, 5, 19, 0, 1, 3, 1, 2, 2, 1, 0.000
11, 5, 20, 0, 3, 1, 1, 2, 1, 2, 0.000
11, 5, 21, 0, 3, 2, 2, 2, 2, 2, 0.000
11, 5, 22, 0, 2, 1, 1, 1, 2, 1, 0.000
11, 5, 23, 0, 3, 1, 2, 1, 2, 2, 0.000
11, 5, 24, 0, 3, 1, 2, 2, 1, 2, 0.000
11, 5, 25, 0, 3, 2, 1, 2, 1, 2, 0.000
11, 5, 26, 0, 1, 2, 1, 1, 2, 1, 0.000
11, 5, 27, 0, 3, 3, 1, 1, 2, 2, 21.000
11, 5, 28, 0, 1, 2, 2, 1, 1, 1, 0.000
11, 5, 29, 0, 2, 3, 1, 2, 2, 1, 0.000
11, 5, 30, 0, 1, 2, 1, 2, 1, 1, 39.000
11, 5, 31, 0, 3, 2, 1, 1, 1, 2, 0.000
11, 5, 32, 0, 2, 1, 1, 2, 2, 1, 1867.000
11, 5, 33, 0, 2, 3, 2, 2, 2, 1, 0.000
11, 5, 34, 0, 3, 2, 2, 1, 1, 2, 1393.000
11, 5, 35, 0, 3, 1, 1, 1, 1, 2, 0.000
11, 5, 36, 0, 2, 3, 2, 1, 1, 2, 1221.000
11, 6, 1, 0, 2, 2, 2, 2, 1, 1, 0.000
11, 6, 2, 0, 2, 1, 2, 2, 1, 1, 1339.000
11, 6, 3, 0, 2, 3, 2, 2, 2, 1, 0.000
11, 6, 4, 0, 2, 1, 1, 1, 2, 2, 0.000
11, 6, 5, 0, 3, 2, 1, 2, 1, 2, 1380.000
11, 6, 6, 0, 1, 1, 1, 1, 2, 1, 0.000
11, 6, 7, 0, 2, 1, 1, 2, 1, 1, 1332.000
11, 6, 8, 0, 1, 1, 1, 2, 2, 1, 0.000
11, 6, 9, 0, 2, 3, 2, 1, 2, 1, 0.000
11, 6, 10, 0, 3, 3, 2, 1, 2, 2, 2982.000
11, 6, 11, 0, 3, 2, 2, 1, 1, 2, 0.000
11, 6, 12, 0, 1, 2, 2, 1, 1, 1, 0.000
11, 6, 13, 0, 1, 3, 2, 2, 1, 1, 0.000
11, 6, 14, 0, 3, 3, 1, 1, 2, 2, 0.000
11, 6, 15, 0, 1, 3, 1, 1, 2, 1, 0.000
11, 6, 16, 0, 3, 2, 2, 2, 2, 2, 0.000
11, 6, 17, 0, 3, 1, 2, 1, 1, 2, 1216.000
11, 6, 18, 0, 3, 3, 2, 2, 1, 2, 0.000
11, 6, 19, 0, 3, 1, 2, 2, 1, 2, 0.000
11, 6, 20, 0, 3, 3, 1, 2, 1, 2, 1.000
11, 6, 21, 0, 3, 2, 1, 1, 1, 2, 0.000
11, 6, 22, 0, 2, 3, 1, 2, 1, 2, 0.000
11, 6, 23, 0, 2, 1, 2, 1, 2, 1, 0.000
11, 6, 24, 0, 1, 1, 2, 2, 1, 1, 0.000
11, 6, 25, 0, 3, 1, 1, 2, 2, 2, 0.000
11, 6, 26, 0, 2, 3, 1, 1, 2, 2, 0.000
11, 6, 27, 0, 1, 3, 1, 2, 1, 1, 0.000
11, 6, 28, 0, 1, 1, 2, 1, 2, 1, 0.000
11, 6, 29, 0, 1, 2, 2, 2, 1, 1, 0.000
11, 6, 30, 0, 2, 2, 1, 1, 1, 2, 0.000
11, 6, 31, 0, 1, 2, 1, 2, 2, 1, 0.000
11, 6, 32, 0, 1, 2, 1, 1, 2, 1, 0.000
11, 6, 33, 0, 2, 2, 2, 1, 2, 2, 0.000
11, 6, 34, 0, 1, 3, 2, 1, 2, 1, 0.000
11, 6, 35, 0, 2, 2, 1, 2, 1, 2, 0.000
11, 6, 36, 0, 3, 1, 1, 1, 1, 2, 0.000
11, 7, 1, 0, 1, 2, 1, 1, 1, 1, 0.000
11, 7, 2, 0, 2, 2, 1, 2, 1, 2, 1575.000
11, 7, 3, 0, 3, 2, 1, 2, 1, 2, 0.000
11, 7, 4, 0, 2, 1, 1, 1, 2, 1, 0.000
11, 7, 5, 0, 3, 3, 2, 2, 1, 2, 41.000
11, 7, 6, 0, 2, 1, 2, 1, 1, 1, 1898.000
11, 7, 7, 0, 1, 2, 1, 2, 2, 1, 0.000
11, 7, 8, 0, 1, 3, 1, 2, 1, 1, 0.000
11, 7, 9, 0, 1, 1, 2, 1, 2, 1, 1420.000
11, 7, 10, 0, 3, 1, 2, 1, 1, 2, 0.000
11, 7, 11, 0, 1, 3, 1, 1, 2, 1, 0.000
11, 7, 12, 0, 2, 2, 1, 1, 1, 1, 0.000
11, 7, 13, 0, 3, 2, 2, 1, 1, 2, 1248.000
11, 7, 14, 0, 2, 2, 2, 2, 2, 1, 1352.000
11, 7, 15, 0, 2, 3, 1, 2, 2, 1, 0.000
11, 7, 16, 0, 3, 1, 2, 2, 1, 2, 0.000
11, 7, 17, 0, 1, 3, 2, 2, 2, 1, 0.000
11, 7, 18, 0, 2, 2, 2, 1, 2, 1, 0.000
11, 7, 19, 0, 1, 2, 2, 1, 1, 1, 0.000
11, 7, 20, 0, 3, 2, 1, 1, 1, 2, 1486.000
11, 7, 21, 0, 3, 3, 1, 1, 2, 2, 0.000
11, 7, 22, 0, 3, 1, 1, 1, 1, 2, 1440.000
11, 7, 23, 0, 1, 1, 1, 1, 1, 2, 0.000
11, 7, 24, 0, 3, 1, 1, 2, 2, 2, 0.000
11, 7, 25, 0, 1, 3, 2, 1, 2, 1, 0.000
11, 7, 26, 0, 2, 1, 2, 2, 2, 1, 0.000
11, 7, 27, 0, 1, 1, 2, 2, 2, 1, 0.000
11, 7, 28, 0, 2, 3, 2, 1, 1, 1, 0.000
11, 7, 29, 0, 2, 1, 1, 2, 2, 1, 1253.000
11, 7, 30, 0, 1, 1, 1, 2, 1, 1, 0.000
11, 7, 31, 0, 3, 3, 1, 2, 1, 2, 957.000
11, 7, 32, 0, 2, 3, 1, 1, 1, 2, 0.000
11, 7, 33, 0, 3, 3, 2, 1, 2, 2, 0.000
11, 7, 34, 0, 1, 2, 2, 2, 2, 1, 0.000
11, 7, 35, 0, 2, 3, 2, 2, 2, 1, 0.000
11, 7, 36, 0, 3, 2, 2, 2, 2, 2, 0.000
11, 8, 1, 0, 3, 1, 2, 2, 1, 1, 0.000
11, 8, 2, 0, 1, 1, 1, 2, 1, 1, 0.000
11, 8, 3, 0, 1, 3, 1, 1, 1, 1, 0.000
11, 8, 4, 0, 2, 2, 1, 2, 1, 2, 1369.000
11, 8, 5, 0, 2, 2, 2, 2, 2, 2, 0.000
11, 8, 6, 0, 1, 2, 2, 1, 2, 1, 2.000
11, 8, 7, 0, 1, 1, 2, 1, 1, 1, 986.000
11, 8, 8, 0, 3, 2, 2, 1, 1, 2, 1254.000
11, 8, 9, 0, 1, 2, 1, 1, 1, 1, 20.000
11, 8, 10, 0, 3, 1, 1, 1, 2, 2, 0.000
11, 8, 11, 0, 2, 1, 2, 1, 2, 1, 92.000
11, 8, 12, 0, 1, 1, 2, 2, 1, 1, 0.000
11, 8, 13, 0, 3, 2, 1, 2, 2, 2, 1132.000
11, 8, 14, 0, 1, 3, 2, 1, 2, 1, 0.000
11, 8, 15, 0, 2, 3, 2, 1, 2, 1, 806.000
11, 8, 16, 0, 3, 3, 1, 2, 1, 2, 654.000
11, 8, 17, 0, 3, 3, 2, 1, 1, 2, 0.000
11, 8, 18, 0, 2, 1, 1, 2, 2, 1, 1150.000
11, 8, 19, 0, 1, 3, 1, 2, 1, 1, 0.000
11, 8, 20, 0, 3, 1, 1, 2, 1, 2, 0.000
11, 8, 21, 0, 2, 3, 1, 2, 2, 2, 0.000
11, 8, 22, 0, 1, 2, 1, 2, 2, 1, 0.000
11, 8, 23, 0, 1, 3, 2, 2, 1, 2, 33.000
11, 8, 24, 0, 2, 1, 1, 1, 2, 2, 0.000
11, 8, 25, 0, 3, 2, 2, 2, 1, 2, 0.000
11, 8, 26, 0, 1, 2, 2, 2, 2, 1, 0.000
11, 8, 27, 0, 2, 3, 1, 1, 1, 1, 0.000
11, 8, 28, 0, 3, 2, 1, 1, 2, 2, 0.000
11, 8, 29, 0, 2, 2, 2, 1, 1, 1, 0.000
11, 8, 30, 0, 3, 1, 2, 1, 1, 2, 0.000
11, 8, 31, 0, 2, 1, 2, 2, 1, 2, 1049.000
11, 8, 32, 0, 3, 3, 1, 1, 1, 2, 0.000
11, 8, 33, 0, 2, 3, 2, 2, 1, 2, 0.000
11, 8, 34, 0, 1, 1, 1, 1, 2, 1, 0.000
11, 8, 35, 0, 3, 3, 2, 2, 1, 2, 0.000
11, 8, 36, 0, 2, 2, 1, 1, 2, 1, 0.000
11, 9, 1, 0, 1, 3, 2, 1, 1, 1, 0.000
11, 9, 2, 0, 2, 1, 2, 2, 2, 9, 0.000
11, 9, 3, 0, 1, 2, 2, 1, 1, 1, 0.000
11, 9, 4, 0, 1, 3, 1, 1, 2, 1, 127.000
11, 9, 5, 0, 2, 1, 1, 1, 1, 1, 0.000
11, 9, 6, 0, 2, 3, 1, 2, 1, 1, 1376.000
11, 9, 7, 0, 3, 3, 1, 2, 1, 2, 1630.000
11, 9, 8, 0, 2, 1, 1, 2, 2, 1, 0.000
11, 9, 9, 0, 1, 1, 1, 2, 2, 1, 0.000
11, 9, 10, 0, 1, 1, 2, 2, 1, 1, 0.000
11, 9, 11, 0, 2, 2, 2, 1, 1, 1, 0.000
11, 9, 12, 0, 1, 3, 2, 2, 1, 1, 0.000
11, 9, 13, 0, 3, 2, 1, 2, 1, 2, 0.000
11, 9, 14, 0, 3, 2, 2, 2, 2, 2, 0.000
11, 9, 15, 0, 2, 2, 1, 1, 2, 2, 0.000
11, 9, 16, 0, 2, 3, 2, 1, 1, 1, 0.000
11, 9, 17, 0, 2, 1, 2, 1, 1, 1, 0.000
11, 9, 18, 0, 3, 1, 1, 2, 1, 2, 0.000
11, 9, 19, 0, 3, 3, 2, 2, 1, 2, 0.000
11, 9, 20, 0, 1, 1, 2, 1, 2, 1, 0.000
11, 9, 21, 0, 1, 3, 1, 2, 2, 1, 0.000
11, 9, 22, 0, 3, 2, 2, 1, 2, 2, 0.000
11, 9, 23, 0, 1, 1, 1, 1, 2, 1, 0.000
11, 9, 24, 0, 1, 2, 2, 2, 1, 1, 0.000
11, 9, 25, 0, 1, 2, 1, 2, 2, 1, 0.000
11, 9, 26, 0, 3, 1, 2, 1, 2, 2, 0.000
11, 9, 27, 0, 2, 3, 2, 2, 1, 1, 0.000
11, 9, 28, 0, 3, 3, 2, 1, 2, 2, 0.000
11, 9, 29, 0, 1, 2, 1, 1, 2, 1, 0.000
11, 9, 30, 0, 3, 3, 1, 1, 2, 2, 0.000
11, 9, 31, 0, 2, 3, 1, 1, 2, 1, 0.000
11, 9, 32, 0, 3, 1, 2, 2, 1, 2, 0.000
11, 9, 33, 0, 3, 2, 1, 1, 1, 2, 0.000
11, 9, 34, 0, 2, 2, 1, 2, 1, 2, 0.000
11, 9, 35, 0, 3, 1, 1, 1, 1, 1, 0.000
11, 9, 36, 0, 2, 2, 2, 2, 2, 1, 0.000
11, 10, 1, 0, 1, 3, 1, 1, 1, 1, 0.000
11, 10, 2, 0, 1, 2, 2, 1, 2, 1, 0.000
11, 10, 3, 0, 2, 2, 2, 2, 2, 1, 0.000
11, 10, 4, 0, 2, 2, 1, 1, 1, 2, 0.000
11, 10, 5, 0, 1, 3, 2, 2, 1, 1, 0.000
11, 10, 6, 0, 2, 1, 2, 2, 1, 1, 0.000
11, 10, 7, 0, 1, 2, 1, 1, 1, 1, 0.000
11, 10, 8, 0, 3, 3, 2, 1, 1, 2, 0.000
11, 10, 9, 0, 3, 2, 2, 1, 1, 2, 0.000
11, 10, 10, 0, 2, 1, 2, 1, 2, 1, 0.000
11, 10, 11, 0, 1, 1, 1, 1, 2, 1, 0.000
11, 10, 12, 0, 1, 3, 1, 2, 1, 1, 0.000
11, 10, 13, 0, 1, 3, 2, 1, 1, 1, 0.000
11, 10, 14, 0, 3, 1, 1, 1, 2, 2, 0.000
11, 10, 15, 0, 3, 1, 1, 2, 2, 2, 38.000
11, 10, 16, 0, 1, 2, 2, 2, 2, 1, 0.000
11, 10, 17, 0, 3, 2, 1, 1, 1, 2, 0.000
11, 10, 18, 0, 3, 3, 1, 2, 2, 2, 1212.000
11, 10, 19, 0, 3, 1, 2, 2, 1, 2, 0.000
11, 10, 20, 0, 3, 2, 1, 2, 1, 2, 0.000
11, 10, 21, 0, 3, 3, 2, 2, 1, 2, 0.000
11, 10, 22, 0, 1, 1, 2, 2, 1, 1, 0.000
11, 10, 23, 0, 2, 2, 2, 1, 1, 2, 0.000
11, 10, 24, 0, 1, 2, 1, 2, 2, 1, 0.000
11, 10, 25, 0, 2, 3, 2, 2, 1, 1, 0.000
11, 10, 26, 0, 3, 2, 2, 2, 1, 2, 0.000
11, 10, 27, 0, 3, 3, 1, 1, 1, 2, 0.000
11, 10, 28, 0, 1, 1, 1, 2, 1, 1, 0.000
11, 10, 29, 0, 3, 1, 2, 1, 1, 2, 0.000
11, 10, 30, 0, 2, 2, 1, 2, 2, 1, 0.000
11, 10, 31, 0, 1, 1, 2, 1, 1, 1, 0.000
11, 10, 32, 0, 2, 3, 2, 1, 2, 1, 0.000
11, 10, 33, 0, 2, 3, 1, 2, 2, 2, 0.000
11, 10, 34, 0, 2, 1, 1, 2, 2, 2, 0.000
11, 10, 35, 0, 2, 1, 1, 1, 2, 1, 0.000
11, 10, 36, 0, 2, 3, 1, 1, 1, 1, 0.000
11, 11, 1, 0, 2, 2, 1, 1, 2, 2, 0.000
11, 11, 2, 0, 2, 1, 2, 2, 1, 1, 0.000
11, 11, 3, 0, 2, 1, 2, 1, 1, 1, 0.000
11, 11, 4, 0, 1, 3, 2, 2, 2, 1, 0.000
11, 11, 5, 0, 1, 1, 2, 2, 2, 1, 0.000
11, 11, 6, 0, 3, 3, 1, 2, 1, 2, 0.000
11, 11, 7, 0, 3, 3, 1, 1, 1, 2, 0.000
11, 11, 8, 0, 1, 2, 2, 1, 1, 1, 0.000
11, 11, 9, 0, 1, 3, 1, 2, 2, 1, 0.000
11, 11, 10, 0, 1, 2, 1, 2, 1, 1, 0.000
11, 11, 11, 0, 1, 2, 1, 1, 2, 1, 0.000
11, 11, 12, 0, 3, 1, 2, 2, 1, 2, 0.000
11, 11, 13, 0, 1, 1, 2, 1, 1, 1, 0.000
11, 11, 14, 0, 3, 2, 1, 1, 2, 2, 0.000
11, 11, 15, 0, 2, 3, 2, 2, 1, 1, 0.000
11, 11, 16, 0, 1, 1, 1, 1, 1, 1, 0.000
11, 11, 17, 0, 2, 2, 2, 1, 2, 1, 0.000
11, 11, 18, 0, 3, 1, 1, 2, 1, 2, 0.000
11, 11, 19, 0, 2, 2, 2, 2, 2, 1, 0.000
11, 11, 20, 0, 1, 3, 1, 1, 2, 1, 0.000
11, 11, 21, 0, 2, 3, 1, 2, 2, 2, 0.000
11, 11, 22, 0, 2, 2, 1, 2, 1, 1, 0.000
11, 11, 23, 0, 1, 1, 1, 2, 2, 1, 0.000
11, 11, 24, 0, 3, 1, 2, 1, 2, 2, 0.000
11, 11, 25, 0, 2, 1, 1, 2, 2, 1, 0.000
11, 11, 26, 0, 3, 2, 2, 1, 2, 2, 0.000
11, 11, 27, 0, 2, 3, 1, 1, 2, 2, 0.000
11, 11, 28, 0, 2, 3, 2, 1, 2, 1, 0.000
11, 11, 29, 0, 3, 2, 1, 2, 2, 2, 0.000
11, 11, 30, 0, 3, 2, 2, 2, 2, 2, 0.000
11, 11, 31, 0, 3, 3, 2, 1, 1, 2, 0.000
11, 11, 32, 0, 2, 1, 1, 1, 2, 1, 1.000
11, 11, 33, 0, 3, 1, 1, 1, 2, 2, 0.000
11, 11, 34, 0, 1, 2, 2, 2, 2, 1, 0.000
11, 11, 35, 0, 1, 3, 2, 1, 2, 1, 0.000
11, 11, 36, 0, 3, 3, 2, 2, 1, 2, 0.000
11, 12, 1, 0, 2, 1, 1, 2, 2, 1, 0.000
11, 12, 2, 0, 3, 3, 2, 1, 2, 2, 0.000
11, 12, 3, 0, 2, 2, 1, 2, 1, 1, 0.000
11, 12, 4, 0, 1, 3, 2, 2, 2, 1, 0.000
11, 12, 5, 0, 2, 2, 2, 2, 2, 2, 0.000
11, 12, 6, 0, 2, 3, 2, 1, 1, 1, 0.000
11, 12, 7, 0, 1, 1, 1, 2, 2, 1, 0.000
11, 12, 8, 0, 3, 2, 1, 2, 2, 2, 0.000
11, 12, 9, 0, 1, 3, 2, 1, 2, 1, 0.000
11, 12, 10, 0, 1, 2, 1, 1, 1, 1, 0.000
11, 12, 11, 0, 3, 2, 1, 1, 1, 2, 0.000
11, 12, 12, 0, 3, 1, 1, 1, 1, 2, 0.000
11, 12, 13, 0, 3, 3, 1, 1, 2, 2, 0.000
11, 12, 14, 0, 2, 2, 2, 1, 2, 1, 0.000
11, 12, 15, 0, 2, 3, 1, 1, 1, 2, 0.000
11, 12, 16, 0, 1, 3, 1, 2, 2, 1, 0.000
11, 12, 17, 0, 1, 1, 1, 1, 2, 1, 0.000
11, 12, 18, 0, 3, 2, 2, 2, 2, 2, 0.000
11, 12, 19, 0, 2, 2, 1, 1, 1, 1, 0.000
11, 12, 20, 0, 3, 1, 1, 2, 2, 2, 0.000
11, 12, 21, 0, 2, 3, 2, 2, 1, 1, 0.000
11, 12, 22, 0, 1, 1, 2, 1, 1, 1, 0.000
11, 12, 23, 0, 2, 1, 2, 1, 2, 1, 0.000
11, 12, 24, 0, 1, 2, 1, 2, 2, 1, 0.000
11, 12, 25, 0, 3, 2, 2, 1, 2, 2, 0.000
11, 12, 26, 0, 1, 2, 2, 2, 2, 1, 0.000
11, 12, 27, 0, 3, 3, 1, 2, 1, 2, 0.000
11, 12, 28, 0, 2, 1, 2, 2, 2, 1, 0.000
11, 12, 29, 0, 3, 3, 2, 2, 2, 2, 0.000
11, 12, 30, 0, 3, 1, 2, 2, 1, 2, 0.000
11, 12, 31, 0, 3, 1, 2, 1, 2, 2, 0.000
11, 12, 32, 0, 1, 2, 2, 1, 2, 1, 0.000
11, 12, 33, 0, 2, 3, 1, 2, 2, 2, 0.000
11, 12, 34, 0, 1, 1, 2, 2, 1, 1, 0.000
11, 12, 35, 0, 1, 3, 1, 1, 2, 1, 0.000
11, 12, 36, 0, 2, 1, 1, 1, 1, 2, 0.000
11, 13, 1, 0, 2, 1, 1, 1, 2, 2, 0.000
11, 13, 2, 0, 1, 1, 2, 2, 2, 1, 0.000
11, 13, 3, 0, 1, 1, 1, 2, 1, 1, 0.000
11, 13, 4, 0, 1, 1, 1, 1, 2, 1, 0.000
11, 13, 5, 0, 1, 3, 2, 1, 2, 1, 0.000
11, 13, 6, 0, 2, 1, 2, 2, 2, 1, 0.000
11, 13, 7, 0, 2, 3, 2, 2, 1, 1, 0.000
11, 13, 8, 0, 3, 2, 2, 2, 1, 2, 0.000
11, 13, 9, 0, 3, 1, 2, 2, 1, 2, 0.000
11, 13, 10, 0, 1, 3, 2, 2, 2, 1, 0.000
11, 13, 11, 0, 3, 2, 1, 1, 2, 2, 0.000
11, 13, 12, 0, 1, 2, 2, 1, 1, 1, 0.000
11, 13, 13, 0, 2, 3, 1, 2, 2, 2, 0.000
11, 13, 14, 0, 2, 2, 1, 1, 1, 2, 0.000
11, 13, 15, 0, 1, 3, 1, 1, 1, 1, 0.000
11, 13, 16, 0, 3, 3, 2, 2, 1, 2, 0.000
11, 13, 17, 0, 3, 3, 1, 1, 2, 2, 831.000
11, 13, 18, 0, 3, 2, 1, 2, 2, 2, 0.000
11, 13, 19, 0, 1, 2, 1, 2, 2, 1, 0.000
11, 13, 20, 0, 2, 2, 2, 2, 2, 1, 0.000
11, 13, 21, 0, 2, 3, 1, 1, 2, 2, 0.000
11, 13, 22, 0, 3, 1, 2, 1, 2, 2, 0.000
11, 13, 23, 0, 2, 2, 2, 1, 1, 1, 0.000
11, 13, 24, 0, 1, 1, 2, 1, 1, 1, 0.000
11, 13, 25, 0, 2, 3, 2, 1, 1, 1, 0.000
11, 13, 26, 0, 3, 3, 1, 2, 1, 2, 0.000
11, 13, 27, 0, 1, 3, 1, 2, 1, 2, 0.000
11, 13, 28, 0, 2, 1, 2, 1, 1, 1, 0.000
11, 13, 29, 0, 2, 2, 1, 2, 1, 2, 0.000
11, 13, 30, 0, 2, 1, 1, 2, 1, 2, 0.000
11, 13, 31, 0, 1, 2, 1, 1, 2, 1, 0.000
11, 13, 32, 0, 3, 2, 2, 1, 1, 1, 0.000
11, 13, 33, 0, 3, 1, 1, 2, 2, 1, 2344.000
11, 13, 34, 0, 1, 2, 2, 2, 2, 1, 0.000
11, 13, 35, 0, 3, 3, 2, 1, 1, 2, 0.000
11, 13, 36, 0, 3, 1, 1, 1, 2, 2, 0.000
